words,number_of_letters,corrAns,thisN,thisTrialN,thisRepN,key_resp.keys,key_resp.rt,key_resp.duration,trials.thisRepN,trials.thisTrialN,trials.thisN,trials.thisIndex,thisRow.t,notes,ins.started,text_4.started,key_resp_2.started,ins.stopped,key_resp_2.keys,key_resp_2.rt,key_resp_2.duration,trial.started,fixation.started,text_2.started,text.started,key_resp.started,fixation.stopped,text_2.stopped,trial.stopped,trials.key_resp.keys,trials.key_resp.rt,trials.key_resp.duration,thanks.started,text_3.started,text_3.stopped,thanks.stopped,participant,session,date,expName,psychopyVersion,frameRate,expStart
,,,,,,,,,,,,,,,0.002654,0.0064235,0.0064235,1.0255454,space,1.0073356,None,,,,,,,,,,,,,,,,62637,1,2024-12-04_16h37.49.828,soloprojectlexical,2024.2.1post4,59.99433654,2024-12-04 16h37.57.198795 +0530
pofitical,9,left,0,0,0,left,0.8330711,None,0,0,0,65,1.0446326,,,,,,,,,1.0393441,1.0446326,1.0446326,2.0367283,2.0367283,2.0535877,2.0535877,2.8720076,left,0.8330711,None,,,,,62637,1,2024-12-04_16h37.49.828,soloprojectlexical,2024.2.1post4,59.99433654,2024-12-04 16h37.57.198795 +0530
sistem,6,left,1,1,0,left,0.8111408,None,0,1,1,39,2.8869228,,,,,,,,,2.8755697,2.8869228,2.8869228,3.8871559,3.8871559,3.8871559,3.8871559,4.7047698,left,0.8111408,None,,,,,62637,1,2024-12-04_16h37.49.828,soloprojectlexical,2024.2.1post4,59.99433654,2024-12-04 16h37.57.198795 +0530
rememper,8,left,2,2,0,left,0.7527116,None,0,2,2,53,4.7203335,,,,,,,,,4.7075006,4.7203335,4.7203335,5.7200649,5.7200649,5.7200649,5.7200649,6.4881648,left,0.7527116,None,,,,,62637,1,2024-12-04_16h37.49.828,soloprojectlexical,2024.2.1post4,59.99433654,2024-12-04 16h37.57.198795 +0530
program,7,right,3,3,0,left,0.9511812,None,0,3,3,40,6.5038259,,,,,,,,,6.4905186,6.5038259,6.5038259,7.5033455,7.5033455,7.5033455,7.5033455,8.4713823,left,0.9511812,None,,,,,62637,1,2024-12-04_16h37.49.828,soloprojectlexical,2024.2.1post4,59.99433654,2024-12-04 16h37.57.198795 +0530
anf,3,left,4,4,0,left,0.8982734,None,0,4,4,3,8.4865906,,,,,,,,,8.4731674,8.4865906,8.4865906,9.4867013,9.4867013,9.4867013,9.4867013,10.3889041,left,0.8982734,None,,,,,62637,1,2024-12-04_16h37.49.828,soloprojectlexical,2024.2.1post4,59.99433654,2024-12-04 16h37.57.198795 +0530
important,9,right,5,5,0,right,1.024123,None,0,5,5,62,10.4036657,,,,,,,,,10.3953351,10.4036657,10.4036657,11.4033809,11.4033809,11.4033809,11.4033809,12.4375427,right,1.024123,None,,,,,62637,1,2024-12-04_16h37.49.828,soloprojectlexical,2024.2.1post4,59.99433654,2024-12-04 16h37.57.198795 +0530
tochnology,10,left,6,6,0,left,1.4976141,None,0,6,6,77,12.4535613,,,,,,,,,12.4396236,12.4535613,12.4535613,13.43666,13.43666,13.4534699,13.4534699,14.9376957,left,1.4976141,None,,,,,62637,1,2024-12-04_16h37.49.828,soloprojectlexical,2024.2.1post4,59.99433654,2024-12-04 16h37.57.198795 +0530
woy,3,left,7,7,0,left,0.5169473,None,0,7,7,1,14.9535025,,,,,,,,,14.939378,14.9535025,14.9535025,15.9530077,15.9530077,15.9530077,15.9530077,16.4718317,left,0.5169473,None,,,,,62637,1,2024-12-04_16h37.49.828,soloprojectlexical,2024.2.1post4,59.99433654,2024-12-04 16h37.57.198795 +0530
ous,3,left,8,8,0,left,0.5612916,None,0,8,8,9,16.4861684,,,,,,,,,16.4741548,16.4861684,16.4861684,17.4865079,17.4865079,17.4865079,17.4865079,18.0545852,left,0.5612916,None,,,,,62637,1,2024-12-04_16h37.49.828,soloprojectlexical,2024.2.1post4,59.99433654,2024-12-04 16h37.57.198795 +0530
compunity,9,left,9,9,0,left,1.2142737,None,0,9,9,67,18.0700355,,,,,,,,,18.0602752,18.0700355,18.0700355,19.0698703,19.0698703,19.0698703,19.0698703,20.2881604,left,1.2142737,None,,,,,62637,1,2024-12-04_16h37.49.828,soloprojectlexical,2024.2.1post4,59.99433654,2024-12-04 16h37.57.198795 +0530
incluting,9,left,10,10,0,left,0.7710309,None,0,10,10,69,20.3031785,,,,,,,,,20.2911107,20.3031785,20.3031785,21.3031357,21.3031357,21.3031357,21.3031357,22.0874584,left,0.7710309,None,,,,,62637,1,2024-12-04_16h37.49.828,soloprojectlexical,2024.2.1post4,59.99433654,2024-12-04 16h37.57.198795 +0530
everything,10,right,11,11,0,right,0.6114377,None,0,11,11,70,22.1027277,,,,,,,,,22.0926987,22.1027277,22.1027277,23.1026692,23.1026692,23.1026692,23.1026692,23.7203936,right,0.6114377,None,,,,,62637,1,2024-12-04_16h37.49.828,soloprojectlexical,2024.2.1post4,59.99433654,2024-12-04 16h37.57.198795 +0530
become,6,right,12,12,0,right,0.678905,None,0,12,12,32,23.735796,,,,,,,,,23.7229603,23.735796,23.735796,24.7357993,24.7357993,24.7357993,24.7357993,25.4209221,right,0.678905,None,,,,,62637,1,2024-12-04_16h37.49.828,soloprojectlexical,2024.2.1post4,59.99433654,2024-12-04 16h37.57.198795 +0530
could,5,right,13,13,0,right,0.6345949,None,0,13,13,28,25.4358531,,,,,,,,,25.4229808,25.4358531,25.4358531,26.43606,26.43606,26.43606,26.43606,27.0875845,right,0.6345949,None,,,,,62637,1,2024-12-04_16h37.49.828,soloprojectlexical,2024.2.1post4,59.99433654,2024-12-04 16h37.57.198795 +0530
much,4,right,14,14,0,right,0.7103173,None,0,14,14,12,27.1027109,,,,,,,,,27.0918237,27.1027109,27.1027109,28.1028782,28.1028782,28.1028782,28.1028782,28.8210936,right,0.7103173,None,,,,,62637,1,2024-12-04_16h37.49.828,soloprojectlexical,2024.2.1post4,59.99433654,2024-12-04 16h37.57.198795 +0530
aboot,5,left,15,15,0,left,1.5415233,None,0,15,15,23,28.8360975,,,,,,,,,28.8240963,28.8360975,28.8360975,29.8357236,29.8357236,29.8357236,29.8357236,31.38705,left,1.5415233,None,,,,,62637,1,2024-12-04_16h37.49.828,soloprojectlexical,2024.2.1post4,59.99433654,2024-12-04 16h37.57.198795 +0530
company,7,right,16,16,0,right,1.2182467,None,0,16,16,46,31.4026215,,,,,,,,,31.3898732,31.4026215,31.4026215,32.40262,32.40262,32.40262,32.40262,33.6370002,right,1.2182467,None,,,,,62637,1,2024-12-04_16h37.49.828,soloprojectlexical,2024.2.1post4,59.99433654,2024-12-04 16h37.57.198795 +0530
line,4,right,17,17,0,right,0.7923762,None,0,17,17,18,33.6525273,,,,,,,,,33.6388561,33.6525273,33.6525273,34.6525682,34.6525682,34.6525682,34.6525682,35.4536938,right,0.7923762,None,,,,,62637,1,2024-12-04_16h37.49.828,soloprojectlexical,2024.2.1post4,59.99433654,2024-12-04 16h37.57.198795 +0530
and,3,right,18,18,0,right,0.6742934,None,0,18,18,2,35.469145,,,,,,,,,35.4556179,35.469145,35.469145,36.4692045,36.4692045,36.4692045,36.4692045,37.15358,right,0.6742934,None,,,,,62637,1,2024-12-04_16h37.49.828,soloprojectlexical,2024.2.1post4,59.99433654,2024-12-04 16h37.57.198795 +0530
including,9,right,19,19,0,right,0.8709789,None,0,19,19,68,37.1690966,,,,,,,,,37.155658,37.1690966,37.1690966,38.1691534,38.1691534,38.1691534,38.1691534,39.0530105,right,0.8709789,None,,,,,62637,1,2024-12-04_16h37.49.828,soloprojectlexical,2024.2.1post4,59.99433654,2024-12-04 16h37.57.198795 +0530
country,7,right,20,20,0,right,0.9798355,None,0,20,20,42,39.0686201,,,,,,,,,39.0555105,39.0686201,39.0686201,40.0690082,40.0690082,40.0690082,40.0690082,41.0533724,right,0.9798355,None,,,,,62637,1,2024-12-04_16h37.49.828,soloprojectlexical,2024.2.1post4,59.99433654,2024-12-04 16h37.57.198795 +0530
question,8,right,21,21,0,right,0.7856848,None,0,21,21,54,41.0691295,,,,,,,,,41.05594,41.0691295,41.0691295,42.0687258,42.0687258,42.0687258,42.0687258,42.8696825,right,0.7856848,None,,,,,62637,1,2024-12-04_16h37.49.828,soloprojectlexical,2024.2.1post4,59.99433654,2024-12-04 16h37.57.198795 +0530
play,4,right,22,22,0,right,0.6638111,None,0,22,22,14,42.8851276,,,,,,,,,42.8723071,42.8851276,42.8851276,43.885202,43.885202,43.885202,43.885202,44.5534027,right,0.6638111,None,,,,,62637,1,2024-12-04_16h37.49.828,soloprojectlexical,2024.2.1post4,59.99433654,2024-12-04 16h37.57.198795 +0530
secade,6,left,23,23,0,left,0.6720693,None,0,23,23,37,44.568648,,,,,,,,,44.557055,44.568648,44.568648,45.5684923,45.5684923,45.5684923,45.5684923,46.2534304,left,0.6720693,None,,,,,62637,1,2024-12-04_16h37.49.828,soloprojectlexical,2024.2.1post4,59.99433654,2024-12-04 16h37.57.198795 +0530
want,4,right,24,24,0,right,0.7127654,None,0,24,24,10,46.2688303,,,,,,,,,46.2560296,46.2688303,46.2688303,47.268436,47.268436,47.268436,47.268436,47.9866752,right,0.7127654,None,,,,,62637,1,2024-12-04_16h37.49.828,soloprojectlexical,2024.2.1post4,59.99433654,2024-12-04 16h37.57.198795 +0530
eferything,10,left,25,25,0,left,0.82682,None,0,25,25,71,48.002024,,,,,,,,,47.9895053,48.002024,48.002024,49.0016157,49.0016157,49.0016157,49.0016157,49.8361515,left,0.82682,None,,,,,62637,1,2024-12-04_16h37.49.828,soloprojectlexical,2024.2.1post4,59.99433654,2024-12-04 16h37.57.198795 +0530
theyr,5,left,26,26,0,left,0.7637624,None,0,26,26,21,49.8520803,,,,,,,,,49.8383219,49.8520803,49.8520803,50.8351939,50.8351939,50.8518605,50.8518605,51.6028599,left,0.7637624,None,,,,,62637,1,2024-12-04_16h37.49.828,soloprojectlexical,2024.2.1post4,59.99433654,2024-12-04 16h37.57.198795 +0530
beliefe,7,left,27,27,0,left,0.6450003,None,0,27,27,49,51.6185538,,,,,,,,,51.605004,51.6185538,51.6185538,52.6183718,52.6183718,52.6183718,52.6183718,53.2691816,left,0.6450003,None,,,,,62637,1,2024-12-04_16h37.49.828,soloprojectlexical,2024.2.1post4,59.99433654,2024-12-04 16h37.57.198795 +0530
bedween,7,left,28,28,0,left,1.8001808,None,0,28,28,45,53.2851022,,,,,,,,,53.2718071,53.2851022,53.2851022,54.2683959,54.2683959,54.2850333,54.2850333,56.0706359,left,1.8001808,None,,,,,62637,1,2024-12-04_16h37.49.828,soloprojectlexical,2024.2.1post4,59.99433654,2024-12-04 16h37.57.198795 +0530
especialty,10,left,29,29,0,right,0.9318609,None,0,29,29,75,56.0847493,,,,,,,,,56.0732903,56.0847493,56.0847493,57.084814,57.084814,57.084814,57.084814,58.0197731,right,0.9318609,None,,,,,62637,1,2024-12-04_16h37.49.828,soloprojectlexical,2024.2.1post4,59.99433654,2024-12-04 16h37.57.198795 +0530
their,5,right,30,30,0,right,1.0948336,None,0,30,30,20,58.034689,,,,,,,,,58.0217221,58.034689,58.034689,59.0348223,59.0348223,59.0348223,59.0348223,60.1358774,right,1.0948336,None,,,,,62637,1,2024-12-04_16h37.49.828,soloprojectlexical,2024.2.1post4,59.99433654,2024-12-04 16h37.57.198795 +0530
believe,7,right,31,31,0,right,0.8734173,None,0,31,31,48,60.1514722,,,,,,,,,60.1382093,60.1514722,60.1514722,61.1515451,61.1515451,61.1515451,61.1515451,62.035557,right,0.8734173,None,,,,,62637,1,2024-12-04_16h37.49.828,soloprojectlexical,2024.2.1post4,59.99433654,2024-12-04 16h37.57.198795 +0530
about,5,right,32,32,0,right,0.7671992,None,0,32,32,22,62.0513133,,,,,,,,,62.0374214,62.0513133,62.0513133,63.0345237,63.0345237,63.0513759,63.0513759,63.8191367,right,0.7671992,None,,,,,62637,1,2024-12-04_16h37.49.828,soloprojectlexical,2024.2.1post4,59.99433654,2024-12-04 16h37.57.198795 +0530
anything,8,right,33,33,0,right,0.6933427,None,0,33,33,56,63.8345634,,,,,,,,,63.8217436,63.8345634,63.8345634,64.8342372,64.8342372,64.8342372,64.8342372,65.5357778,right,0.6933427,None,,,,,62637,1,2024-12-04_16h37.49.828,soloprojectlexical,2024.2.1post4,59.99433654,2024-12-04 16h37.57.198795 +0530
experience,10,right,34,34,0,right,0.6684181,None,0,34,34,72,65.5510443,,,,,,,,,65.5417638,65.5510443,65.5510443,66.5512438,66.5512438,66.5512438,66.5512438,67.2359667,right,0.6684181,None,,,,,62637,1,2024-12-04_16h37.49.828,soloprojectlexical,2024.2.1post4,59.99433654,2024-12-04 16h37.57.198795 +0530
bopulation,10,left,35,35,0,left,1.1875398,None,0,35,35,79,67.2511283,,,,,,,,,67.2386746,67.2511283,67.2511283,68.2511747,68.2511747,68.2511747,68.2511747,69.4524242,left,1.1875398,None,,,,,62637,1,2024-12-04_16h37.49.828,soloprojectlexical,2024.2.1post4,59.99433654,2024-12-04 16h37.57.198795 +0530
pesearch,8,left,36,36,0,left,0.9361232,None,0,36,36,59,69.4677741,,,,,,,,,69.4551276,69.4677741,69.4677741,70.467472,70.467472,70.467472,70.467472,71.4185937,left,0.9361232,None,,,,,62637,1,2024-12-04_16h37.49.828,soloprojectlexical,2024.2.1post4,59.99433654,2024-12-04 16h37.57.198795 +0530
anythink,8,left,37,37,0,left,0.6973638,None,0,37,37,57,71.4341281,,,,,,,,,71.4217125,71.4341281,71.4341281,72.4176842,72.4176842,72.4340564,72.4340564,73.1187569,left,0.6973638,None,,,,,62637,1,2024-12-04_16h37.49.828,soloprojectlexical,2024.2.1post4,59.99433654,2024-12-04 16h37.57.198795 +0530
whicb,5,left,38,38,0,left,0.8146545,None,0,38,38,27,73.1340684,,,,,,,,,73.121362,73.1340684,73.1340684,74.1339564,74.1339564,74.1339564,74.1339564,74.9527858,left,0.8146545,None,,,,,62637,1,2024-12-04_16h37.49.828,soloprojectlexical,2024.2.1post4,59.99433654,2024-12-04 16h37.57.198795 +0530
shoule,6,left,39,39,0,left,0.6432917,None,0,39,39,31,74.9674804,,,,,,,,,74.9569956,74.9674804,74.9674804,75.9674988,75.9674988,75.9674988,75.9674988,76.6187899,left,0.6432917,None,,,,,62637,1,2024-12-04_16h37.49.828,soloprojectlexical,2024.2.1post4,59.99433654,2024-12-04 16h37.57.198795 +0530
quesdion,8,left,40,40,0,left,0.5615468,None,0,40,40,55,76.6340432,,,,,,,,,76.6219068,76.6340432,76.6340432,77.6336941,77.6336941,77.6336941,77.6336941,78.2023648,left,0.5615468,None,,,,,62637,1,2024-12-04_16h37.49.828,soloprojectlexical,2024.2.1post4,59.99433654,2024-12-04 16h37.57.198795 +0530
compane,7,left,41,41,0,left,0.5981869,None,0,41,41,47,78.2174326,,,,,,,,,78.2054405,78.2174326,78.2174326,79.2171795,79.2171795,79.2171795,79.2171795,79.8188325,left,0.5981869,None,,,,,62637,1,2024-12-04_16h37.49.828,soloprojectlexical,2024.2.1post4,59.99433654,2024-12-04 16h37.57.198795 +0530
becone,6,left,42,42,0,left,0.6360486,None,0,42,42,33,79.8337674,,,,,,,,,79.8218439,79.8337674,79.8337674,80.8335551,80.8335551,80.8335551,80.8335551,81.4850356,left,0.6360486,None,,,,,62637,1,2024-12-04_16h37.49.828,soloprojectlexical,2024.2.1post4,59.99433654,2024-12-04 16h37.57.198795 +0530
community,9,right,43,43,0,left,0.5594859,None,0,43,43,66,81.5004345,,,,,,,,,81.4881892,81.5004345,81.5004345,82.5004191,82.5004191,82.5004191,82.5004191,83.0686152,left,0.5594859,None,,,,,62637,1,2024-12-04_16h37.49.828,soloprojectlexical,2024.2.1post4,59.99433654,2024-12-04 16h37.57.198795 +0530
population,10,right,44,44,0,right,0.7172339,None,0,44,44,78,83.0836291,,,,,,,,,83.0714781,83.0836291,83.0836291,84.083566,84.083566,84.083566,84.083566,84.8031747,right,0.7172339,None,,,,,62637,1,2024-12-04_16h37.49.828,soloprojectlexical,2024.2.1post4,59.99433654,2024-12-04 16h37.57.198795 +0530
mech,4,left,45,45,0,left,0.6436032,None,0,45,45,13,84.8168561,,,,,,,,,84.8061667,84.8168561,84.8168561,85.8168177,85.8168177,85.8168177,85.8168177,86.4686625,left,0.6436032,None,,,,,62637,1,2024-12-04_16h37.49.828,soloprojectlexical,2024.2.1post4,59.99433654,2024-12-04 16h37.57.198795 +0530
factor,6,right,46,46,0,right,0.7542439,None,0,46,46,34,86.4835434,,,,,,,,,86.4716242,86.4835434,86.4835434,87.4834812,87.4834812,87.4834812,87.4834812,88.2514245,right,0.7542439,None,,,,,62637,1,2024-12-04_16h37.49.828,soloprojectlexical,2024.2.1post4,59.99433654,2024-12-04 16h37.57.198795 +0530
countey,7,left,47,47,0,left,0.7524267,None,0,47,47,43,88.2667212,,,,,,,,,88.2541264,88.2667212,88.2667212,89.2669572,89.2669572,89.2669572,89.2669572,90.0347643,left,0.7524267,None,,,,,62637,1,2024-12-04_16h37.49.828,soloprojectlexical,2024.2.1post4,59.99433654,2024-12-04 16h37.57.198795 +0530
exberience,10,left,48,48,0,right,0.8716004,None,0,48,48,73,90.0500343,,,,,,,,,90.03922,90.0500343,90.0500343,91.0499711,91.0499711,91.0499711,91.0499711,91.9347889,right,0.8716004,None,,,,,62637,1,2024-12-04_16h37.49.828,soloprojectlexical,2024.2.1post4,59.99433654,2024-12-04 16h37.57.198795 +0530
way,3,right,49,49,0,right,0.7884346,None,0,49,49,0,91.9500861,,,,,,,,,91.938143,91.9500861,91.9500861,92.9497734,92.9497734,92.9497734,92.9497734,93.7516217,right,0.7884346,None,,,,,62637,1,2024-12-04_16h37.49.828,soloprojectlexical,2024.2.1post4,59.99433654,2024-12-04 16h37.57.198795 +0530
fector,6,left,50,50,0,left,1.503212,None,0,50,50,35,93.7665039,,,,,,,,,93.7556453,93.7665039,93.7665039,94.7667068,94.7667068,94.7667068,94.7667068,96.2845787,left,1.503212,None,,,,,62637,1,2024-12-04_16h37.49.828,soloprojectlexical,2024.2.1post4,59.99433654,2024-12-04 16h37.57.198795 +0530
new,3,right,51,51,0,right,0.6026602,None,0,51,51,4,96.2998494,,,,,,,,,96.2870827,96.2998494,96.2998494,97.2997982,97.2997982,97.2997982,97.2997982,97.9172397,right,0.6026602,None,,,,,62637,1,2024-12-04_16h37.49.828,soloprojectlexical,2024.2.1post4,59.99433654,2024-12-04 16h37.57.198795 +0530
fot,3,left,52,52,0,left,0.624122,None,0,52,52,7,97.9326548,,,,,,,,,97.9190218,97.9326548,97.9326548,98.9161506,98.9161506,98.9328909,98.9328909,99.5517498,left,0.624122,None,,,,,62637,1,2024-12-04_16h37.49.828,soloprojectlexical,2024.2.1post4,59.99433654,2024-12-04 16h37.57.198795 +0530
which,5,right,53,53,0,right,0.9084992,None,0,53,53,26,99.566497,,,,,,,,,99.5563437,99.566497,99.566497,100.5662081,100.5662081,100.5662081,100.5662081,101.4844672,right,0.9084992,None,,,,,62637,1,2024-12-04_16h37.49.828,soloprojectlexical,2024.2.1post4,59.99433654,2024-12-04 16h37.57.198795 +0530
lipe,4,left,54,54,0,left,1.0062189,None,0,54,54,19,101.4997574,,,,,,,,,101.4881238,101.4997574,101.4997574,102.4995894,102.4995894,102.4995894,102.4995894,103.5174346,left,1.0062189,None,,,,,62637,1,2024-12-04_16h37.49.828,soloprojectlexical,2024.2.1post4,59.99433654,2024-12-04 16h37.57.198795 +0530
decade,6,right,55,55,0,left,0.6016031,None,0,55,55,36,103.5325786,,,,,,,,,103.5200358,103.5325786,103.5325786,104.5327554,104.5327554,104.5327554,104.5327554,105.1506571,left,0.6016031,None,,,,,62637,1,2024-12-04_16h37.49.828,soloprojectlexical,2024.2.1post4,59.99433654,2024-12-04 16h37.57.198795 +0530
wunt,4,left,56,56,0,left,0.6783847,None,0,56,56,11,105.1658401,,,,,,,,,105.1531888,105.1658401,105.1658401,106.1661879,106.1661879,106.1661879,106.1661879,106.8511339,left,0.6783847,None,,,,,62637,1,2024-12-04_16h37.49.828,soloprojectlexical,2024.2.1post4,59.99433654,2024-12-04 16h37.57.198795 +0530
courd,5,left,57,57,0,left,0.961431,None,0,57,57,29,106.8660456,,,,,,,,,106.8536619,106.8660456,106.8660456,107.8660688,107.8660688,107.8660688,107.8660688,108.8335737,left,0.961431,None,,,,,62637,1,2024-12-04_16h37.49.828,soloprojectlexical,2024.2.1post4,59.99433654,2024-12-04 16h37.57.198795 +0530
bifferent,9,left,58,58,0,left,1.0000151,None,0,58,58,61,108.8494535,,,,,,,,,108.8356378,108.8494535,108.8494535,109.8325569,109.8325569,109.8494671,109.8494671,110.8362141,left,1.0000151,None,,,,,62637,1,2024-12-04_16h37.49.828,soloprojectlexical,2024.2.1post4,59.99433654,2024-12-04 16h37.57.198795 +0530
different,9,right,59,59,0,right,0.6812327,None,0,59,59,60,110.8492534,,,,,,,,,110.843777,110.8492534,110.8492534,111.848958,111.848958,111.848958,111.848958,112.5333941,right,0.6812327,None,,,,,62637,1,2024-12-04_16h37.49.828,soloprojectlexical,2024.2.1post4,59.99433654,2024-12-04 16h37.57.198795 +0530
should,6,right,60,60,0,right,1.0482133,None,0,60,60,30,112.5488339,,,,,,,,,112.5354124,112.5488339,112.5488339,113.5490856,113.5490856,113.5490856,113.5490856,114.6004536,right,1.0482133,None,,,,,62637,1,2024-12-04_16h37.49.828,soloprojectlexical,2024.2.1post4,59.99433654,2024-12-04 16h37.57.198795 +0530
system,6,right,61,61,0,right,0.7026045,None,0,61,61,38,114.6158129,,,,,,,,,114.6029817,114.6158129,114.6158129,115.6158048,115.6158048,115.6158048,115.6158048,116.3336856,right,0.7026045,None,,,,,62637,1,2024-12-04_16h37.49.828,soloprojectlexical,2024.2.1post4,59.99433654,2024-12-04 16h37.57.198795 +0530
for,3,right,62,62,0,right,0.6750117,None,0,62,62,6,116.3491061,,,,,,,,,116.3360186,116.3491061,116.3491061,117.3489285,117.3489285,117.3489285,117.3489285,118.033261,right,0.6750117,None,,,,,62637,1,2024-12-04_16h37.49.828,soloprojectlexical,2024.2.1post4,59.99433654,2024-12-04 16h37.57.198795 +0530
business,8,right,63,63,0,right,0.8173775,None,0,63,63,50,118.0490595,,,,,,,,,118.0360194,118.0490595,118.0490595,119.0490557,119.0490557,119.0490557,119.0490557,119.8832512,right,0.8173775,None,,,,,62637,1,2024-12-04_16h37.49.828,soloprojectlexical,2024.2.1post4,59.99433654,2024-12-04 16h37.57.198795 +0530
between,7,right,64,64,0,right,0.787544,None,0,64,64,44,119.8985566,,,,,,,,,119.8857023,119.8985566,119.8985566,120.8990149,120.8990149,120.8990149,120.8990149,121.7000214,right,0.787544,None,,,,,62637,1,2024-12-04_16h37.49.828,soloprojectlexical,2024.2.1post4,59.99433654,2024-12-04 16h37.57.198795 +0530
political,9,right,65,65,0,right,0.6568345,None,0,65,65,64,121.7155796,,,,,,,,,121.7022105,121.7155796,121.7155796,122.7153536,122.7153536,122.7153536,122.7153536,123.3830745,right,0.6568345,None,,,,,62637,1,2024-12-04_16h37.49.828,soloprojectlexical,2024.2.1post4,59.99433654,2024-12-04 16h37.57.198795 +0530
neu,3,left,66,66,0,left,0.7546356,None,0,66,66,5,123.3987004,,,,,,,,,123.3849742,123.3987004,123.3987004,124.3987898,124.3987898,124.3987898,124.3987898,125.1669374,left,0.7546356,None,,,,,62637,1,2024-12-04_16h37.49.828,soloprojectlexical,2024.2.1post4,59.99433654,2024-12-04 16h37.57.198795 +0530
thenk,5,left,67,67,0,left,0.6069205,None,0,67,67,25,125.1818795,,,,,,,,,125.1721677,125.1818795,125.1818795,126.1816185,126.1816185,126.1816185,126.1816185,126.7998747,left,0.6069205,None,,,,,62637,1,2024-12-04_16h37.49.828,soloprojectlexical,2024.2.1post4,59.99433654,2024-12-04 16h37.57.198795 +0530
out,3,right,68,68,0,right,1.491987,None,0,68,68,8,126.8153144,,,,,,,,,126.8022202,126.8153144,126.8153144,127.8152663,127.8152663,127.8152663,127.8152663,129.3163769,right,1.491987,None,,,,,62637,1,2024-12-04_16h37.49.828,soloprojectlexical,2024.2.1post4,59.99433654,2024-12-04 16h37.57.198795 +0530
heur,4,left,69,69,0,left,0.8615033,None,0,69,69,17,129.3316682,,,,,,,,,129.3192731,129.3316682,129.3316682,130.3315569,130.3315569,130.3315569,130.3315569,131.1993589,left,0.8615033,None,,,,,62637,1,2024-12-04_16h37.49.828,soloprojectlexical,2024.2.1post4,59.99433654,2024-12-04 16h37.57.198795 +0530
hour,4,right,70,70,0,right,0.6985906,None,0,70,70,16,131.2150141,,,,,,,,,131.2012969,131.2150141,131.2150141,132.2150173,132.2150173,132.2150173,132.2150173,132.9157222,right,0.6985906,None,,,,,62637,1,2024-12-04_16h37.49.828,soloprojectlexical,2024.2.1post4,59.99433654,2024-12-04 16h37.57.198795 +0530
bussness,8,left,71,71,0,right,0.6700039,None,0,71,71,51,132.9312735,,,,,,,,,132.918286,132.9312735,132.9312735,133.9149021,133.9149021,133.9314426,133.9314426,134.5994113,right,0.6700039,None,,,,,62637,1,2024-12-04_16h37.49.828,soloprojectlexical,2024.2.1post4,59.99433654,2024-12-04 16h37.57.198795 +0530
remember,8,right,72,72,0,right,0.6355082,None,0,72,72,52,134.6148462,,,,,,,,,134.6022272,134.6148462,134.6148462,135.6146005,135.6146005,135.6146005,135.6146005,136.2662133,right,0.6355082,None,,,,,62637,1,2024-12-04_16h37.49.828,soloprojectlexical,2024.2.1post4,59.99433654,2024-12-04 16h37.57.198795 +0530
research,8,right,73,73,0,right,0.7826868,None,0,73,73,58,136.2815559,,,,,,,,,136.2684314,136.2815559,136.2815559,137.2809516,137.2809516,137.2809516,137.2809516,138.0658858,right,0.7826868,None,,,,,62637,1,2024-12-04_16h37.49.828,soloprojectlexical,2024.2.1post4,59.99433654,2024-12-04 16h37.57.198795 +0530
pregram,7,left,74,74,0,left,0.9278435,None,0,74,74,41,138.0809102,,,,,,,,,138.0685093,138.0809102,138.0809102,139.0808935,139.0808935,139.0808935,139.0808935,140.0170354,left,0.9278435,None,,,,,62637,1,2024-12-04_16h37.49.828,soloprojectlexical,2024.2.1post4,59.99433654,2024-12-04 16h37.57.198795 +0530
especially,10,right,75,75,0,right,0.6584242,None,0,75,75,74,140.0310804,,,,,,,,,140.0219437,140.0310804,140.0310804,141.0309516,141.0309516,141.0309516,141.0309516,141.699354,right,0.6584242,None,,,,,62637,1,2024-12-04_16h37.49.828,soloprojectlexical,2024.2.1post4,59.99433654,2024-12-04 16h37.57.198795 +0530
ptay,4,left,76,76,0,left,1.5127951,None,0,76,76,15,141.7145907,,,,,,,,,141.7019321,141.7145907,141.7145907,142.7142889,142.7142889,142.7142889,142.7142889,144.2326368,left,1.5127951,None,,,,,62637,1,2024-12-04_16h37.49.828,soloprojectlexical,2024.2.1post4,59.99433654,2024-12-04 16h37.57.198795 +0530
technology,10,right,77,77,0,right,0.8094126,None,0,77,77,76,144.2480012,,,,,,,,,144.2354449,144.2480012,144.2480012,145.2476025,145.2476025,145.2476025,145.2476025,146.0660555,right,0.8094126,None,,,,,62637,1,2024-12-04_16h37.49.828,soloprojectlexical,2024.2.1post4,59.99433654,2024-12-04 16h37.57.198795 +0530
importent,9,left,78,78,0,left,0.7888116,None,0,78,78,63,146.0810059,,,,,,,,,146.0690914,146.0810059,146.0810059,147.0808495,147.0808495,147.0808495,147.0808495,147.8822821,left,0.7888116,None,,,,,62637,1,2024-12-04_16h37.49.828,soloprojectlexical,2024.2.1post4,59.99433654,2024-12-04 16h37.57.198795 +0530
think,5,right,79,79,0,right,0.6006329,None,0,79,79,24,147.897505,,,,,,,,,147.8851167,147.897505,147.897505,148.8974909,148.8974909,148.8974909,148.8974909,149.5006548,right,0.6006329,None,,,,,62637,1,2024-12-04_16h37.49.828,soloprojectlexical,2024.2.1post4,59.99433654,2024-12-04 16h37.57.198795 +0530
,,,,,,,,,,,,,,,,,,,,,,,,,,,,,,,,,149.5008298,149.5144817,150.5140504,150.498022,62637,1,2024-12-04_16h37.49.828,soloprojectlexical,2024.2.1post4,59.99433654,2024-12-04 16h37.57.198795 +0530
