words,number_of_letters,corrAns,thisN,thisTrialN,thisRepN,key_resp.keys,key_resp.rt,key_resp.duration,trials.thisRepN,trials.thisTrialN,trials.thisN,trials.thisIndex,thisRow.t,notes,ins.started,text_4.started,key_resp_2.started,ins.stopped,key_resp_2.keys,key_resp_2.rt,key_resp_2.duration,trial.started,fixation.started,text_2.started,text.started,key_resp.started,fixation.stopped,text_2.stopped,trial.stopped,trials.key_resp.keys,trials.key_resp.rt,trials.key_resp.duration,thanks.started,text_3.started,text_3.stopped,thanks.stopped,participant,session,date,expName,psychopyVersion,frameRate,expStart,
,,,,,,,,,,,,,,,0.00247859995579347,0.005734499951358885,0.005734499951358885,0.9618286999757402,space,0.9449607999995351,None,,,,,,,,,,,,,,,,462351,001,2024-12-04_16h40.56.895,soloprojectlexical,2024.2.1post4,60.030315316440166,2024-12-04 16h41.21.736093 +0530,
shoule,6,left,0,0,0,left,0.7218273000326008,None,0,0,0,31,0.9821817999472842,,,,,,,,,0.9770390999619849,0.9821817999472842,0.9821817999472842,1.9733949999790639,1.9733949999790639,1.990115299995523,1.990115299995523,2.707988399954047,left,0.7218273000326008,None,,,,,462351,001,2024-12-04_16h40.56.895,soloprojectlexical,2024.2.1post4,60.030315316440166,2024-12-04 16h41.21.736093 +0530,
experience,10,right,1,1,0,right,0.7326848999946378,None,0,1,1,72,2.7232483999687247,,,,,,,,,2.712861799984239,2.7232483999687247,2.7232483999687247,3.7233506999909878,3.7233506999909878,3.7233506999909878,3.7233506999909878,4.458054799993988,right,0.7326848999946378,None,,,,,462351,001,2024-12-04_16h40.56.895,soloprojectlexical,2024.2.1post4,60.030315316440166,2024-12-04 16h41.21.736093 +0530,
especially,10,right,2,2,0,right,0.969350699975621,None,0,2,2,74,4.47330630000215,,,,,,,,,4.460516999999527,4.47330630000215,4.47330630000215,5.473228899994865,5.473228899994865,5.473228899994865,5.473228899994865,6.457827899954282,right,0.969350699975621,None,,,,,462351,001,2024-12-04_16h40.56.895,soloprojectlexical,2024.2.1post4,60.030315316440166,2024-12-04 16h41.21.736093 +0530,
beliefe,7,left,3,3,0,right,0.7562296999967657,None,0,3,3,49,6.473261599952821,,,,,,,,,6.46032389998436,6.473261599952821,6.473261599952821,7.472978199948557,7.472978199948557,7.472978199948557,7.472978199948557,8.241128499968909,right,0.7562296999967657,None,,,,,462351,001,2024-12-04_16h40.56.895,soloprojectlexical,2024.2.1post4,60.030315316440166,2024-12-04 16h41.21.736093 +0530,
play,4,right,4,4,0,right,0.5834215000504628,None,0,4,4,14,8.25659689999884,,,,,,,,,8.242940499971155,8.25659689999884,8.25659689999884,9.256624699977692,9.256624699977692,9.256624699977692,9.256624699977692,9.841919199971016,right,0.5834215000504628,None,,,,,462351,001,2024-12-04_16h40.56.895,soloprojectlexical,2024.2.1post4,60.030315316440166,2024-12-04 16h41.21.736093 +0530,
eferything,10,left,5,5,0,left,0.7493282000068575,None,0,5,5,71,9.856506699987222,,,,,,,,,9.844434099970385,9.856506699987222,9.856506699987222,10.856500199995935,10.856500199995935,10.856500199995935,10.856500199995935,11.608047399960924,left,0.7493282000068575,None,,,,,462351,001,2024-12-04_16h40.56.895,soloprojectlexical,2024.2.1post4,60.030315316440166,2024-12-04 16h41.21.736093 +0530,
political,9,right,6,6,0,right,0.7034139999886975,None,0,6,6,64,11.623017899983097,,,,,,,,,11.610771199979354,11.623017899983097,11.623017899983097,12.623060899961274,12.623060899961274,12.623060899961274,12.623060899961274,13.340905699995346,right,0.7034139999886975,None,,,,,462351,001,2024-12-04_16h40.56.895,soloprojectlexical,2024.2.1post4,60.030315316440166,2024-12-04 16h41.21.736093 +0530,
becone,6,left,7,7,0,left,0.585620799975004,None,0,7,7,33,13.356293599994387,,,,,,,,,13.343303199973889,13.356293599994387,13.356293599994387,14.356305499968585,14.356305499968585,14.356305499968585,14.356305499968585,14.95750749995932,left,0.585620799975004,None,,,,,462351,001,2024-12-04_16h40.56.895,soloprojectlexical,2024.2.1post4,60.030315316440166,2024-12-04 16h41.21.736093 +0530,
anything,8,right,8,8,0,right,0.9963020000141114,None,0,8,8,56,14.973004299972672,,,,,,,,,14.959674199984875,14.973004299972672,14.973004299972672,15.972895099956077,15.972895099956077,15.972895099956077,15.972895099956077,16.973639899981208,right,0.9963020000141114,None,,,,,462351,001,2024-12-04_16h40.56.895,soloprojectlexical,2024.2.1post4,60.030315316440166,2024-12-04 16h41.21.736093 +0530,
way,3,right,9,9,0,right,0.617991000006441,None,0,9,9,0,16.989596899948083,,,,,,,,,16.97559279995039,16.989596899948083,16.989596899948083,17.972805099969264,17.972805099969264,17.989416699972935,17.989416699972935,18.6073558999924,right,0.617991000006441,None,,,,,462351,001,2024-12-04_16h40.56.895,soloprojectlexical,2024.2.1post4,60.030315316440166,2024-12-04 16h41.21.736093 +0530,
country,7,right,10,10,0,left,0.542819399968721,None,0,10,10,42,18.62278979999246,,,,,,,,,18.60945399996126,18.62278979999246,18.62278979999246,19.622564999968745,19.622564999968745,19.622564999968745,19.622564999968745,20.173645599978045,left,0.542819399968721,None,,,,,462351,001,2024-12-04_16h40.56.895,soloprojectlexical,2024.2.1post4,60.030315316440166,2024-12-04 16h41.21.736093 +0530,
could,5,right,11,11,0,right,0.5926894000149332,None,0,11,11,28,20.18932369997492,,,,,,,,,20.175732799980324,20.18932369997492,20.18932369997492,21.189308999979403,21.189308999979403,21.189308999979403,21.189308999979403,21.790558199980296,right,0.5926894000149332,None,,,,,462351,001,2024-12-04_16h40.56.895,soloprojectlexical,2024.2.1post4,60.030315316440166,2024-12-04 16h41.21.736093 +0530,
research,8,right,12,12,0,right,0.717090799997095,None,0,12,12,58,21.80634819995612,,,,,,,,,21.792341299995314,21.80634819995612,21.80634819995612,22.805966999963857,22.805966999963857,22.805966999963857,22.805966999963857,23.54035839997232,right,0.717090799997095,None,,,,,462351,001,2024-12-04_16h40.56.895,soloprojectlexical,2024.2.1post4,60.030315316440166,2024-12-04 16h41.21.736093 +0530,
technology,10,right,13,13,0,right,0.732781300030183,None,0,13,13,76,23.555926399945747,,,,,,,,,23.542800299997907,23.555926399945747,23.555926399945747,24.555745799967553,24.555745799967553,24.555745799967553,24.555745799967553,25.290557899978012,right,0.732781300030183,None,,,,,462351,001,2024-12-04_16h40.56.895,soloprojectlexical,2024.2.1post4,60.030315316440166,2024-12-04 16h41.21.736093 +0530,
question,8,right,14,14,0,right,0.5169057000312023,None,0,14,14,54,25.30583679996198,,,,,,,,,25.29230579995783,25.30583679996198,25.30583679996198,26.305708899977617,26.305708899977617,26.305708899977617,26.305708899977617,26.82434219995048,right,0.5169057000312023,None,,,,,462351,001,2024-12-04_16h40.56.895,soloprojectlexical,2024.2.1post4,60.030315316440166,2024-12-04 16h41.21.736093 +0530,
everything,10,right,15,15,0,right,0.5732157999882475,None,0,15,15,70,26.83910519996425,,,,,,,,,26.828738699958194,26.83910519996425,26.83910519996425,27.83903889998328,27.83903889998328,27.83903889998328,27.83903889998328,28.42346089996863,right,0.5732157999882475,None,,,,,462351,001,2024-12-04_16h40.56.895,soloprojectlexical,2024.2.1post4,60.030315316440166,2024-12-04 16h41.21.736093 +0530,
thenk,5,left,16,16,0,left,0.625113100046292,None,0,16,16,25,28.43903989996761,,,,,,,,,28.425342099973932,28.43903989996761,28.43903989996761,29.439070599968545,29.439070599968545,29.439070599968545,29.439070599968545,30.073322599986568,left,0.625113100046292,None,,,,,462351,001,2024-12-04_16h40.56.895,soloprojectlexical,2024.2.1post4,60.030315316440166,2024-12-04 16h41.21.736093 +0530,
pofitical,9,left,17,17,0,left,0.9966215000022203,None,0,17,17,65,30.088943099952303,,,,,,,,,30.076192799955606,30.088943099952303,30.088943099952303,31.08897319994867,31.08897319994867,31.08897319994867,31.08897319994867,32.09004509996157,left,0.9966215000022203,None,,,,,462351,001,2024-12-04_16h40.56.895,soloprojectlexical,2024.2.1post4,60.030315316440166,2024-12-04 16h41.21.736093 +0530,
about,5,right,18,18,0,left,0.7289033000124618,None,0,18,18,22,32.10554119996959,,,,,,,,,32.09244129998842,32.10554119996959,32.10554119996959,33.105381199973635,33.105381199973635,33.105381199973635,33.105381199973635,33.83981959999073,left,0.7289033000124618,None,,,,,462351,001,2024-12-04_16h40.56.895,soloprojectlexical,2024.2.1post4,60.030315316440166,2024-12-04 16h41.21.736093 +0530,
out,3,right,19,19,0,right,0.7214030000031926,None,0,19,19,8,33.85552399995504,,,,,,,,,33.84173499996541,33.85552399995504,33.85552399995504,34.85546759999124,34.85546759999124,34.85546759999124,34.85546759999124,35.590079899993725,right,0.7214030000031926,None,,,,,462351,001,2024-12-04_16h40.56.895,soloprojectlexical,2024.2.1post4,60.030315316440166,2024-12-04 16h41.21.736093 +0530,
much,4,right,20,20,0,right,0.8746508000185713,None,0,20,20,12,35.605357499967795,,,,,,,,,35.59416229999624,35.605357499967795,35.605357499967795,36.60536799998954,36.60536799998954,36.60536799998954,36.60536799998954,37.49004669999704,right,0.8746508000185713,None,,,,,462351,001,2024-12-04_16h40.56.895,soloprojectlexical,2024.2.1post4,60.030315316440166,2024-12-04 16h41.21.736093 +0530,
bussness,8,left,21,21,0,right,0.5895753999939188,None,0,21,21,51,37.5054479999817,,,,,,,,,37.49261089996435,37.5054479999817,37.5054479999817,38.505562699981965,38.505562699981965,38.505562699981965,38.505562699981965,39.1066368999891,right,0.5895753999939188,None,,,,,462351,001,2024-12-04_16h40.56.895,soloprojectlexical,2024.2.1post4,60.030315316440166,2024-12-04 16h41.21.736093 +0530,
hour,4,right,22,22,0,right,0.8066839999519289,None,0,22,22,16,39.12190410000039,,,,,,,,,39.10879589995602,39.12190410000039,39.12190410000039,40.1217359000002,40.1217359000002,40.1217359000002,40.1217359000002,40.939372699998785,right,0.8066839999519289,None,,,,,462351,001,2024-12-04_16h40.56.895,soloprojectlexical,2024.2.1post4,60.030315316440166,2024-12-04 16h41.21.736093 +0530,
ous,3,left,23,23,0,left,0.8115463999565691,None,0,23,23,9,40.95507549995091,,,,,,,,,40.94127009995282,40.95507549995091,40.95507549995091,41.955263199983165,41.955263199983165,41.955263199983165,41.955263199983165,42.77265229995828,left,0.8115463999565691,None,,,,,462351,001,2024-12-04_16h40.56.895,soloprojectlexical,2024.2.1post4,60.030315316440166,2024-12-04 16h41.21.736093 +0530,
become,6,right,24,24,0,right,0.7088224999606609,None,0,24,24,32,42.7884844999644,,,,,,,,,42.77524849999463,42.7884844999644,42.7884844999644,43.77162159996806,43.77162159996806,43.788388499990106,43.788388499990106,44.48908410000149,right,0.7088224999606609,None,,,,,462351,001,2024-12-04_16h40.56.895,soloprojectlexical,2024.2.1post4,60.030315316440166,2024-12-04 16h41.21.736093 +0530,
decade,6,right,25,25,0,right,0.9317309000180103,None,0,25,25,36,44.505255999974906,,,,,,,,,44.49114859994734,44.505255999974906,44.505255999974906,45.48841169994557,45.48841169994557,45.50505709997378,45.50505709997378,46.422603699960746,right,0.9317309000180103,None,,,,,462351,001,2024-12-04_16h40.56.895,soloprojectlexical,2024.2.1post4,60.030315316440166,2024-12-04 16h41.21.736093 +0530,
courd,5,left,26,26,0,left,0.7837633999879472,None,0,26,26,29,46.43836400000146,,,,,,,,,46.42479449999519,46.43836400000146,46.43836400000146,47.421444799983874,47.421444799983874,47.43836949998513,47.43836949998513,48.20708599995123,left,0.7837633999879472,None,,,,,462351,001,2024-12-04_16h40.56.895,soloprojectlexical,2024.2.1post4,60.030315316440166,2024-12-04 16h41.21.736093 +0530,
aboot,5,left,27,27,0,right,0.55403539998224,None,0,27,27,23,48.221434099948965,,,,,,,,,48.20928519999143,48.221434099948965,48.221434099948965,49.221344199962914,49.221344199962914,49.221344199962914,49.221344199962914,49.78944309998769,right,0.55403539998224,None,,,,,462351,001,2024-12-04_16h40.56.895,soloprojectlexical,2024.2.1post4,60.030315316440166,2024-12-04 16h41.21.736093 +0530,
importent,9,left,28,28,0,left,1.0993901999900118,None,0,28,28,63,49.8051029999624,,,,,,,,,49.79163559997687,49.8051029999624,49.8051029999624,50.804674799961504,50.804674799961504,50.804674799961504,50.804674799961504,51.9060111999861,left,1.0993901999900118,None,,,,,462351,001,2024-12-04_16h40.56.895,soloprojectlexical,2024.2.1post4,60.030315316440166,2024-12-04 16h41.21.736093 +0530,
between,7,right,29,29,0,right,0.7437113000196405,None,0,29,29,44,51.92115660000127,,,,,,,,,51.90788590000011,51.92115660000127,51.92115660000127,52.9212017999962,52.9212017999962,52.9212017999962,52.9212017999962,53.67241349996766,right,0.7437113000196405,None,,,,,462351,001,2024-12-04_16h40.56.895,soloprojectlexical,2024.2.1post4,60.030315316440166,2024-12-04 16h41.21.736093 +0530,
believe,7,right,30,30,0,right,0.758405800035689,None,0,30,30,48,53.68800989998272,,,,,,,,,53.67484949994832,53.68800989998272,53.68800989998272,54.68808130000252,54.68808130000252,54.68808130000252,54.68808130000252,55.45584449998569,right,0.758405800035689,None,,,,,462351,001,2024-12-04_16h40.56.895,soloprojectlexical,2024.2.1post4,60.030315316440166,2024-12-04 16h41.21.736093 +0530,
countey,7,left,31,31,0,left,0.9755792000214569,None,0,31,31,43,55.47140869998839,,,,,,,,,55.45903289999114,55.47140869998839,55.47140869998839,56.471163299982436,56.471163299982436,56.471163299982436,56.471163299982436,57.45568579999963,left,0.9755792000214569,None,,,,,462351,001,2024-12-04_16h40.56.895,soloprojectlexical,2024.2.1post4,60.030315316440166,2024-12-04 16h41.21.736093 +0530,
should,6,right,32,32,0,right,0.6768082000198774,None,0,32,32,30,57.47106640000129,,,,,,,,,57.457818099996075,57.47106640000129,57.47106640000129,58.47099010000238,58.47099010000238,58.47099010000238,58.47099010000238,59.155621999991126,right,0.6768082000198774,None,,,,,462351,001,2024-12-04_16h40.56.895,soloprojectlexical,2024.2.1post4,60.030315316440166,2024-12-04 16h41.21.736093 +0530,
wunt,4,left,33,33,0,left,1.6255700000328943,None,0,33,33,11,59.17093619995285,,,,,,,,,59.157647699990775,59.17093619995285,59.17093619995285,60.17095810000319,60.17095810000319,60.17095810000319,60.17095810000319,61.805460799951106,left,1.6255700000328943,None,,,,,462351,001,2024-12-04_16h40.56.895,soloprojectlexical,2024.2.1post4,60.030315316440166,2024-12-04 16h41.21.736093 +0530,
fot,3,left,34,34,0,left,0.8288404000340961,None,0,34,34,7,61.8208403000026,,,,,,,,,61.807454199995846,61.8208403000026,61.8208403000026,62.82075499999337,62.82075499999337,62.82075499999337,62.82075499999337,63.655672499968205,left,0.8288404000340961,None,,,,,462351,001,2024-12-04_16h40.56.895,soloprojectlexical,2024.2.1post4,60.030315316440166,2024-12-04 16h41.21.736093 +0530,
pesearch,8,left,35,35,0,left,0.6458523999899626,None,0,35,35,59,63.67063979996601,,,,,,,,,63.657979999959935,63.67063979996601,63.67063979996601,64.6705846999539,64.6705846999539,64.6705846999539,64.6705846999539,65.32189389999257,left,0.6458523999899626,None,,,,,462351,001,2024-12-04_16h40.56.895,soloprojectlexical,2024.2.1post4,60.030315316440166,2024-12-04 16h41.21.736093 +0530,
theyr,5,left,36,36,0,left,0.6352088999701664,None,0,36,36,21,65.3375640999875,,,,,,,,,65.32406279997667,65.3375640999875,65.3375640999875,66.32060359994648,66.32060359994648,66.33743259997573,66.33743259997573,66.97169139998732,left,0.6352088999701664,None,,,,,462351,001,2024-12-04_16h40.56.895,soloprojectlexical,2024.2.1post4,60.030315316440166,2024-12-04 16h41.21.736093 +0530,
ptay,4,left,37,37,0,left,0.8876030000392348,None,0,37,37,15,66.98737190000247,,,,,,,,,66.9732719999738,66.98737190000247,66.98737190000247,67.98741549998522,67.98741549998522,67.98741549998522,67.98741549998522,68.88841419998789,left,0.8876030000392348,None,,,,,462351,001,2024-12-04_16h40.56.895,soloprojectlexical,2024.2.1post4,60.030315316440166,2024-12-04 16h41.21.736093 +0530,
mech,4,left,38,38,0,left,0.826189199986402,None,0,38,38,13,68.90377899998566,,,,,,,,,68.89076449995628,68.90377899998566,68.90377899998566,69.90398919995641,69.90398919995641,69.90398919995641,69.90398919995641,70.73846329998923,left,0.826189199986402,None,,,,,462351,001,2024-12-04_16h40.56.895,soloprojectlexical,2024.2.1post4,60.030315316440166,2024-12-04 16h41.21.736093 +0530,
anythink,8,left,39,39,0,left,1.9865934000117704,None,0,39,39,57,70.75379119999707,,,,,,,,,70.74065759999212,70.75379119999707,70.75379119999707,71.75392789999023,71.75392789999023,71.75392789999023,71.75392789999023,73.75503209995804,left,1.9865934000117704,None,,,,,462351,001,2024-12-04_16h40.56.895,soloprojectlexical,2024.2.1post4,60.030315316440166,2024-12-04 16h41.21.736093 +0530,
company,7,right,40,40,0,right,0.8345407000160776,None,0,40,40,46,73.770211199997,,,,,,,,,73.75774899998214,73.770211199997,73.770211199997,74.7704085999867,74.7704085999867,74.7704085999867,74.7704085999867,75.62131839996437,right,0.8345407000160776,None,,,,,462351,001,2024-12-04_16h40.56.895,soloprojectlexical,2024.2.1post4,60.030315316440166,2024-12-04 16h41.21.736093 +0530,
exberience,10,left,41,41,0,left,1.0318803999689408,None,0,41,41,73,75.63720319996355,,,,,,,,,75.62394379999023,75.63720319996355,75.63720319996355,76.63701829995262,76.63701829995262,76.63701829995262,76.63701829995262,77.67117219994543,left,1.0318803999689408,None,,,,,462351,001,2024-12-04_16h40.56.895,soloprojectlexical,2024.2.1post4,60.030315316440166,2024-12-04 16h41.21.736093 +0530,
bedween,7,left,42,42,0,left,1.0191579000093043,None,0,42,42,45,77.68702579999808,,,,,,,,,77.67375529999845,77.68702579999808,77.68702579999808,78.67032089998247,78.67032089998247,78.6871250999975,78.6871250999975,79.7046198999742,left,1.0191579000093043,None,,,,,462351,001,2024-12-04_16h40.56.895,soloprojectlexical,2024.2.1post4,60.030315316440166,2024-12-04 16h41.21.736093 +0530,
anf,3,left,43,43,0,left,0.690339699969627,None,0,43,43,3,79.71993859997019,,,,,,,,,79.70660289999796,79.71993859997019,79.71993859997019,80.72005459998036,80.72005459998036,80.72005459998036,80.72005459998036,81.42115879995981,left,0.690339699969627,None,,,,,462351,001,2024-12-04_16h40.56.895,soloprojectlexical,2024.2.1post4,60.030315316440166,2024-12-04 16h41.21.736093 +0530,
pregram,7,left,44,44,0,left,0.8033399999840185,None,0,44,44,41,81.43679229996633,,,,,,,,,81.42363219999243,81.43679229996633,81.43679229996633,82.43680369999493,82.43680369999493,82.43680369999493,82.43680369999493,83.25480899994727,left,0.8033399999840185,None,,,,,462351,001,2024-12-04_16h40.56.895,soloprojectlexical,2024.2.1post4,60.030315316440166,2024-12-04 16h41.21.736093 +0530,
line,4,right,45,45,0,right,0.8001397000043653,None,0,45,45,18,83.26988799998071,,,,,,,,,83.257993599982,83.26988799998071,83.26988799998071,84.26987849996658,84.26987849996658,84.26987849996658,84.26987849996658,85.07159359997604,right,0.8001397000043653,None,,,,,462351,001,2024-12-04_16h40.56.895,soloprojectlexical,2024.2.1post4,60.030315316440166,2024-12-04 16h41.21.736093 +0530,
want,4,right,46,46,0,right,0.5988029000000097,None,0,46,46,10,85.08656499994686,,,,,,,,,85.07351779995952,85.08656499994686,85.08656499994686,86.0865824999637,86.0865824999637,86.0865824999637,86.0865824999637,86.6876409999677,right,0.5988029000000097,None,,,,,462351,001,2024-12-04_16h40.56.895,soloprojectlexical,2024.2.1post4,60.030315316440166,2024-12-04 16h41.21.736093 +0530,
compunity,9,left,47,47,0,left,0.9967994000180624,None,0,47,47,67,86.7032091000001,,,,,,,,,86.68994819995714,86.7032091000001,86.7032091000001,87.70312259998173,87.70312259998173,87.70312259998173,87.70312259998173,88.70485849998659,left,0.9967994000180624,None,,,,,462351,001,2024-12-04_16h40.56.895,soloprojectlexical,2024.2.1post4,60.030315316440166,2024-12-04 16h41.21.736093 +0530,
bopulation,10,left,48,48,0,left,1.4883207000093535,None,0,48,48,79,88.71961089997785,,,,,,,,,88.70708989998093,88.71961089997785,88.71961089997785,89.71968559996458,89.71968559996458,89.71968559996458,89.71968559996458,91.22064249997493,left,1.4883207000093535,None,,,,,462351,001,2024-12-04_16h40.56.895,soloprojectlexical,2024.2.1post4,60.030315316440166,2024-12-04 16h41.21.736093 +0530,
program,7,right,49,49,0,right,0.9915318000130355,None,0,49,49,40,91.23644379997859,,,,,,,,,91.22442079999018,91.23644379997859,91.23644379997859,92.21976279997034,92.21976279997034,92.23659139999654,92.23659139999654,93.22060459997738,right,0.9915318000130355,None,,,,,462351,001,2024-12-04_16h40.56.895,soloprojectlexical,2024.2.1post4,60.030315316440166,2024-12-04 16h41.21.736093 +0530,
fector,6,left,50,50,0,left,0.7147390000172891,None,0,50,50,35,93.23649609996937,,,,,,,,,93.22254759998759,93.23649609996937,93.23649609996937,94.21938809996936,94.21938809996936,94.23619969998254,94.23619969998254,94.93762369995238,left,0.7147390000172891,None,,,,,462351,001,2024-12-04_16h40.56.895,soloprojectlexical,2024.2.1post4,60.030315316440166,2024-12-04 16h41.21.736093 +0530,
think,5,right,51,51,0,right,0.7952394000021741,None,0,51,51,24,94.95285939995665,,,,,,,,,94.9398970999755,94.95285939995665,94.95285939995665,95.9526209999458,95.9526209999458,95.9526209999458,95.9526209999458,96.7541848999681,right,0.7952394000021741,None,,,,,462351,001,2024-12-04_16h40.56.895,soloprojectlexical,2024.2.1post4,60.030315316440166,2024-12-04 16h41.21.736093 +0530,
heur,4,left,52,52,0,left,0.7322171999840066,None,0,52,52,17,96.7694649999612,,,,,,,,,96.75656670000171,96.7694649999612,96.7694649999612,97.76944459998049,97.76944459998049,97.76944459998049,97.76944459998049,98.50396709999768,left,0.7322171999840066,None,,,,,462351,001,2024-12-04_16h40.56.895,soloprojectlexical,2024.2.1post4,60.030315316440166,2024-12-04 16h41.21.736093 +0530,
neu,3,left,53,53,0,left,0.4742808999726549,None,0,53,53,5,98.51931899995543,,,,,,,,,98.50626489997376,98.51931899995543,98.51931899995543,99.5192750999704,99.5192750999704,99.5192750999704,99.5192750999704,100.00383750000037,left,0.4742808999726549,None,,,,,462351,001,2024-12-04_16h40.56.895,soloprojectlexical,2024.2.1post4,60.030315316440166,2024-12-04 16h41.21.736093 +0530,
woy,3,left,54,54,0,left,0.5506359999999404,None,0,54,54,1,100.0192768999841,,,,,,,,,100.00590679998277,100.0192768999841,100.0192768999841,101.0190279999515,101.0190279999515,101.0190279999515,101.0190279999515,101.58697229996324,left,0.5506359999999404,None,,,,,462351,001,2024-12-04_16h40.56.895,soloprojectlexical,2024.2.1post4,60.030315316440166,2024-12-04 16h41.21.736093 +0530,
lipe,4,left,55,55,0,left,0.6933191000134684,None,0,55,55,19,101.60278399998788,,,,,,,,,101.5889275999507,101.60278399998788,101.60278399998788,102.60253539995756,102.60253539995756,102.60253539995756,102.60253539995756,103.30361819994869,left,0.6933191000134684,None,,,,,462351,001,2024-12-04_16h40.56.895,soloprojectlexical,2024.2.1post4,60.030315316440166,2024-12-04 16h41.21.736093 +0530,
different,9,right,56,56,0,right,0.8498801999958232,None,0,56,56,60,103.31903069996042,,,,,,,,,103.30558899999596,103.31903069996042,103.31903069996042,104.31919419998303,104.31919419998303,104.31919419998303,104.31919419998303,105.1703391999472,right,0.8498801999958232,None,,,,,462351,001,2024-12-04_16h40.56.895,soloprojectlexical,2024.2.1post4,60.030315316440166,2024-12-04 16h41.21.736093 +0530,
factor,6,right,57,57,0,left,0.7523012000019662,None,0,57,57,34,105.18557569995755,,,,,,,,,105.17220469994936,105.18557569995755,105.18557569995755,106.18555589998141,106.18555589998141,106.18555589998141,106.18555589998141,106.95343709998997,left,0.7523012000019662,None,,,,,462351,001,2024-12-04_16h40.56.895,soloprojectlexical,2024.2.1post4,60.030315316440166,2024-12-04 16h41.21.736093 +0530,
compane,7,left,58,58,0,left,0.7437282999744639,None,0,58,58,47,106.96880859998055,,,,,,,,,106.95570349995978,106.96880859998055,106.96880859998055,107.96877409995068,107.96877409995068,107.96877409995068,107.96877409995068,108.71990769996773,left,0.7437282999744639,None,,,,,462351,001,2024-12-04_16h40.56.895,soloprojectlexical,2024.2.1post4,60.030315316440166,2024-12-04 16h41.21.736093 +0530,
bifferent,9,left,59,59,0,left,0.9080929000047036,None,0,59,59,61,108.73593269998673,,,,,,,,,108.72165019996464,108.73593269998673,108.73593269998673,109.71883889997844,109.71883889997844,109.73563069995726,109.73563069995726,110.63673679996282,left,0.9080929000047036,None,,,,,462351,001,2024-12-04_16h40.56.895,soloprojectlexical,2024.2.1post4,60.030315316440166,2024-12-04 16h41.21.736093 +0530,
quesdion,8,left,60,60,0,left,0.7919652999844402,None,0,60,60,55,110.65220139996381,,,,,,,,,110.63885199994547,110.65220139996381,110.65220139996381,111.65241379995132,111.65241379995132,111.65241379995132,111.65241379995132,112.45328309998149,left,0.7919652999844402,None,,,,,462351,001,2024-12-04_16h40.56.895,soloprojectlexical,2024.2.1post4,60.030315316440166,2024-12-04 16h41.21.736093 +0530,
and,3,right,61,61,0,right,0.8097977000288665,None,0,61,61,2,112.46853600000031,,,,,,,,,112.4571491999668,112.46853600000031,112.46853600000031,113.4523050999851,113.4523050999851,113.46860549994744,113.46860549994744,114.26939469994977,right,0.8097977000288665,None,,,,,462351,001,2024-12-04_16h40.56.895,soloprojectlexical,2024.2.1post4,60.030315316440166,2024-12-04 16h41.21.736093 +0530,
new,3,right,62,62,0,right,0.663351800001692,None,0,62,62,4,114.2853489999543,,,,,,,,,114.27133889996912,114.2853489999543,114.2853489999543,115.26869149995036,115.26869149995036,115.28529599995818,115.28529599995818,115.93645459995605,right,0.663351800001692,None,,,,,462351,001,2024-12-04_16h40.56.895,soloprojectlexical,2024.2.1post4,60.030315316440166,2024-12-04 16h41.21.736093 +0530,
tochnology,10,left,63,63,0,left,0.8544715999742039,None,0,63,63,77,115.95198249997338,,,,,,,,,115.93970079999417,115.95198249997338,115.95198249997338,116.95187469996745,116.95187469996745,116.95187469996745,116.95187469996745,117.81955769995693,left,0.8544715999742039,None,,,,,462351,001,2024-12-04_16h40.56.895,soloprojectlexical,2024.2.1post4,60.030315316440166,2024-12-04 16h41.21.736093 +0530,
secade,6,left,64,64,0,left,0.8277955999947153,None,0,64,64,37,117.83517729997402,,,,,,,,,117.82145439996384,117.83517729997402,117.83517729997402,118.83525249996455,118.83525249996455,118.83525249996455,118.83525249996455,119.66904079995584,left,0.8277955999947153,None,,,,,462351,001,2024-12-04_16h40.56.895,soloprojectlexical,2024.2.1post4,60.030315316440166,2024-12-04 16h41.21.736093 +0530,
for,3,right,65,65,0,right,1.5781385999871418,None,0,65,65,6,119.68535220000194,,,,,,,,,119.6718710999703,119.68535220000194,119.68535220000194,120.66822479997063,120.66822479997063,120.68526179995388,120.68526179995388,122.25281549995998,right,1.5781385999871418,None,,,,,462351,001,2024-12-04_16h40.56.895,soloprojectlexical,2024.2.1post4,60.030315316440166,2024-12-04 16h41.21.736093 +0530,
incluting,9,left,66,66,0,left,4.377438399998937,None,0,66,66,69,122.26827959995717,,,,,,,,,122.25516039994545,122.26827959995717,122.26827959995717,123.26796420000028,123.26796420000028,123.26796420000028,123.26796420000028,127.65269679995254,left,4.377438399998937,None,,,,,462351,001,2024-12-04_16h40.56.895,soloprojectlexical,2024.2.1post4,60.030315316440166,2024-12-04 16h41.21.736093 +0530,
system,6,right,67,67,0,right,0.9490497999940999,None,0,67,67,38,127.6680020999629,,,,,,,,,127.65491549996659,127.6680020999629,127.6680020999629,128.65131019998807,128.65131019998807,128.66781679994892,128.66781679994892,129.60302499996033,right,0.9490497999940999,None,,,,,462351,001,2024-12-04_16h40.56.895,soloprojectlexical,2024.2.1post4,60.030315316440166,2024-12-04 16h41.21.736093 +0530,
remember,8,right,68,68,0,left,0.9365442999987863,None,0,68,68,52,129.61801759997616,,,,,,,,,129.60551319998922,129.61801759997616,129.61801759997616,130.6177827999927,130.6177827999927,130.6177827999927,130.6177827999927,131.56912859994918,left,0.9365442999987863,None,,,,,462351,001,2024-12-04_16h40.56.895,soloprojectlexical,2024.2.1post4,60.030315316440166,2024-12-04 16h41.21.736093 +0530,
population,10,right,69,69,0,right,0.7895945000345819,None,0,69,69,78,131.5846564999665,,,,,,,,,131.5713362999959,131.5846564999665,131.5846564999665,132.5847431999864,132.5847431999864,132.5847431999864,132.5847431999864,133.38555949996226,right,0.7895945000345819,None,,,,,462351,001,2024-12-04_16h40.56.895,soloprojectlexical,2024.2.1post4,60.030315316440166,2024-12-04 16h41.21.736093 +0530,
their,5,right,70,70,0,right,0.603155400021933,None,0,70,70,20,133.40143009996973,,,,,,,,,133.3871921999962,133.40143009996973,133.40143009996973,134.401290699956,134.401290699956,134.401290699956,134.401290699956,135.01869029999943,right,0.603155400021933,None,,,,,462351,001,2024-12-04_16h40.56.895,soloprojectlexical,2024.2.1post4,60.030315316440166,2024-12-04 16h41.21.736093 +0530,
business,8,right,71,71,0,right,2.9434121000231244,None,0,71,71,50,135.03456199995708,,,,,,,,,135.0210170999635,135.03456199995708,135.03456199995708,136.01774529996328,136.01774529996328,136.03436930000316,136.03436930000316,138.96872209996218,right,2.9434121000231244,None,,,,,462351,001,2024-12-04_16h40.56.895,soloprojectlexical,2024.2.1post4,60.030315316440166,2024-12-04 16h41.21.736093 +0530,
important,9,right,72,72,0,right,0.8399617999675684,None,0,72,72,62,138.9842499999795,,,,,,,,,138.9711488999892,138.9842499999795,138.9842499999795,139.98423099995125,139.98423099995125,139.98423099995125,139.98423099995125,140.83507689996623,right,0.8399617999675684,None,,,,,462351,001,2024-12-04_16h40.56.895,soloprojectlexical,2024.2.1post4,60.030315316440166,2024-12-04 16h41.21.736093 +0530,
including,9,right,73,73,0,right,0.9743094999575987,None,0,73,73,68,140.8510374999605,,,,,,,,,140.83696449996205,140.8510374999605,140.8510374999605,141.83427199994912,141.83427199994912,141.85102389997337,141.85102389997337,142.818567099981,right,0.9743094999575987,None,,,,,462351,001,2024-12-04_16h40.56.895,soloprojectlexical,2024.2.1post4,60.030315316440166,2024-12-04 16h41.21.736093 +0530,
whicb,5,left,74,74,0,left,0.9117858000099659,None,0,74,74,27,142.8342844999861,,,,,,,,,142.82046819996322,142.8342844999861,142.8342844999861,143.83420230000047,143.83420230000047,143.83420230000047,143.83420230000047,144.7521393999923,left,0.9117858000099659,None,,,,,462351,001,2024-12-04_16h40.56.895,soloprojectlexical,2024.2.1post4,60.030315316440166,2024-12-04 16h41.21.736093 +0530,
especialty,10,left,75,75,0,left,1.9072070999536663,None,0,75,75,75,144.7674031999777,,,,,,,,,144.75474449998,144.7674031999777,144.7674031999777,145.7672393999528,145.7672393999528,145.7672393999528,145.7672393999528,147.6852495999774,left,1.9072070999536663,None,,,,,462351,001,2024-12-04_16h40.56.895,soloprojectlexical,2024.2.1post4,60.030315316440166,2024-12-04 16h41.21.736093 +0530,
sistem,6,left,76,76,0,left,1.550268299994059,None,0,76,76,39,147.7010300999973,,,,,,,,,147.68803739995928,147.7010300999973,147.7010300999973,148.70077639998635,148.70077639998635,148.70077639998635,148.70077639998635,150.2680080999853,left,1.550268299994059,None,,,,,462351,001,2024-12-04_16h40.56.895,soloprojectlexical,2024.2.1post4,60.030315316440166,2024-12-04 16h41.21.736093 +0530,
rememper,8,left,77,77,0,left,3.063846599950921,None,0,77,77,53,150.28386069997214,,,,,,,,,150.27067449997412,150.28386069997214,150.28386069997214,151.2668722999515,151.2668722999515,151.28393309999956,151.28393309999956,154.33491459995275,left,3.063846599950921,None,,,,,462351,001,2024-12-04_16h40.56.895,soloprojectlexical,2024.2.1post4,60.030315316440166,2024-12-04 16h41.21.736093 +0530,
community,9,right,78,78,0,right,1.089009600051213,None,0,78,78,66,154.3504072999931,,,,,,,,,154.33739909995347,154.3504072999931,154.3504072999931,155.3504284999799,155.3504284999799,155.3504284999799,155.3504284999799,156.45144909998635,right,1.089009600051213,None,,,,,462351,001,2024-12-04_16h40.56.895,soloprojectlexical,2024.2.1post4,60.030315316440166,2024-12-04 16h41.21.736093 +0530,
which,5,right,79,79,0,right,0.7685790000250563,None,0,79,79,26,156.46690209995722,,,,,,,,,156.45446300000185,156.46690209995722,156.46690209995722,157.4666141999769,157.4666141999769,157.4666141999769,157.4666141999769,158.25141559995245,right,0.7685790000250563,None,,,,,462351,001,2024-12-04_16h40.56.895,soloprojectlexical,2024.2.1post4,60.030315316440166,2024-12-04 16h41.21.736093 +0530,
,,,,,,,,,,,,,,,,,,,,,,,,,,,,,,,,,158.25151259999257,158.26672229997348,159.26663319999352,159.2508268999518,462351,001,2024-12-04_16h40.56.895,soloprojectlexical,2024.2.1post4,60.030315316440166,2024-12-04 16h41.21.736093 +0530,
