stair.thisTrialN,stair.stepSize,stair.intensity,thisRow.t,notes,trial.started,fixation.started,grating.started,key_resp.started,fixation.stopped,grating.stopped,trial.stopped,corrAns,tilt,key_resp.corr,stair.response,key_resp.rt,participant,session,date,expName,psychopyVersion,frameRate,expStart,
0,2,10.0,0.03530899994075298,,0.017687399871647358,0.03530899994075298,0.5186420998070389,0.5186420998070389,0.535692699952051,0.8189115999266505,0.8730587000027299,right,10.0,0,0,0.3425151000265032,200650,001,2024-09-06_14h04.04.129,Adaptive staircase,2024.2.1post4,60.723422400860684,2024-09-06 14h04.12.421584 +0530,
1,2,12.0,0.8852272999938577,,0.8732153999153525,0.8852272999938577,1.3859850999433547,1.3859850999433547,1.3859850999433547,1.6854143999516964,1.8703854999039322,left,-12.0,0,0,0.475332299945876,200650,001,2024-09-06_14h04.04.129,Adaptive staircase,2024.2.1post4,60.723422400860684,2024-09-06 14h04.12.421584 +0530,
2,2,14.0,1.885348399868235,,1.8705502999946475,1.885348399868235,2.3853616998530924,2.3853616998530924,2.3853616998530924,2.6855738998856395,3.136945999925956,left,-14.0,0,0,0.7461711999494582,200650,001,2024-09-06_14h04.04.129,Adaptive staircase,2024.2.1post4,60.723422400860684,2024-09-06 14h04.12.421584 +0530,
3,1,16.0,3.15245379996486,,3.1370893998537213,3.15245379996486,3.652436099946499,3.652436099946499,3.652436099946499,,3.736858299933374,left,-16.0,1,1,0.07498049992136657,200650,001,2024-09-06_14h04.04.129,Adaptive staircase,2024.2.1post4,60.723422400860684,2024-09-06 14h04.12.421584 +0530,
4,1,15.0,3.75229369988665,,3.7370647999923676,3.75229369988665,4.25180929992348,4.25180929992348,4.25180929992348,,4.436628700001165,left,-15.0,0,0,0.17358649987727404,200650,001,2024-09-06_14h04.04.129,Adaptive staircase,2024.2.1post4,60.723422400860684,2024-09-06 14h04.12.421584 +0530,
5,1,16.0,4.452175399987027,,4.436784599907696,4.452175399987027,4.95210689981468,4.95210689981468,4.95210689981468,5.2520940999966115,5.486520699923858,left,-16.0,0,0,0.5268027000129223,200650,001,2024-09-06_14h04.04.129,Adaptive staircase,2024.2.1post4,60.723422400860684,2024-09-06 14h04.12.421584 +0530,
6,1,17.0,5.502191299805418,,5.486729399999604,5.502191299805418,5.985748399980366,5.985748399980366,6.002274099970236,6.285341099835932,6.455854499945417,right,17.0,1,1,0.4567992000374943,200650,001,2024-09-06_14h04.04.129,Adaptive staircase,2024.2.1post4,60.723422400860684,2024-09-06 14h04.12.421584 +0530,
7,1,17.0,6.470436199801043,,6.456149699864909,6.470436199801043,6.970277999993414,6.970277999993414,6.970277999993414,7.270336400019005,7.437781299930066,left,-17.0,0,0,0.45617970009334385,200650,001,2024-09-06_14h04.04.129,Adaptive staircase,2024.2.1post4,60.723422400860684,2024-09-06 14h04.12.421584 +0530,
8,1,18.0,7.4529166999273,,7.437994199804962,7.4529166999273,7.937874999828637,7.937874999828637,7.954238999867812,8.23743709991686,8.371834199875593,right,18.0,1,1,0.4188194000162184,200650,001,2024-09-06_14h04.04.129,Adaptive staircase,2024.2.1post4,60.723422400860684,2024-09-06 14h04.12.421584 +0530,
9,1,18.0,8.386346800019965,,8.37221059994772,8.386346800019965,8.886124699842185,8.886124699842185,8.886124699842185,9.186670299852267,9.238880599848926,right,18.0,1,1,0.3432637001387775,200650,001,2024-09-06_14h04.04.129,Adaptive staircase,2024.2.1post4,60.723422400860684,2024-09-06 14h04.12.421584 +0530,
10,0.5,18.0,9.253718899795786,,9.239182099932805,9.253718899795786,9.753067499957979,9.753067499957979,9.753067499957979,10.053597299847752,10.322372499853373,right,18.0,1,1,0.5538379000499845,200650,001,2024-09-06_14h04.04.129,Adaptive staircase,2024.2.1post4,60.723422400860684,2024-09-06 14h04.12.421584 +0530,
11,0.5,17.5,10.337146099889651,,10.322744000004604,10.337146099889651,10.837040900019929,10.837040900019929,10.837040900019929,11.136835099896416,11.238603099947795,left,-17.5,0,0,0.38819020008668303,200650,001,2024-09-06_14h04.04.129,Adaptive staircase,2024.2.1post4,60.723422400860684,2024-09-06 14h04.12.421584 +0530,
12,0.5,18.0,11.253649999853224,,11.23894239985384,11.253649999853224,11.753604999976233,11.753604999976233,11.753604999976233,12.068821799941361,12.219406899996102,left,-18.0,0,0,0.45465210010297596,200650,001,2024-09-06_14h04.04.129,Adaptive staircase,2024.2.1post4,60.723422400860684,2024-09-06 14h04.12.421584 +0530,
13,0.5,18.5,12.235220999922603,,12.219562500016764,12.235220999922603,12.71854029991664,12.71854029991664,12.735198499867693,13.020098899956793,13.07026720000431,left,-18.5,0,0,0.3457146999426186,200650,001,2024-09-06_14h04.04.129,Adaptive staircase,2024.2.1post4,60.723422400860684,2024-09-06 14h04.12.421584 +0530,
14,0.5,19.0,13.085347299929708,,13.070517999818549,13.085347299929708,13.584963999921456,13.584963999921456,13.584963999921456,13.885124399792403,13.870026999851689,left,-19.0,0,0,0.28302129986695945,200650,001,2024-09-06_14h04.04.129,Adaptive staircase,2024.2.1post4,60.723422400860684,2024-09-06 14h04.12.421584 +0530,
15,0.5,19.5,13.885124399792403,,13.870217100018635,13.885124399792403,14.385046999901533,14.385046999901533,14.385046999901533,14.684992699883878,14.836349899880588,left,-19.5,0,0,0.44189510005526245,200650,001,2024-09-06_14h04.04.129,Adaptive staircase,2024.2.1post4,60.723422400860684,2024-09-06 14h04.12.421584 +0530,
16,0.5,20.0,14.851907199947163,,14.836532999994233,14.851907199947163,15.351996899815276,15.351996899815276,15.351996899815276,15.651743999915197,15.769464999902993,left,-20.0,0,0,0.4139844998717308,200650,001,2024-09-06_14h04.04.129,Adaptive staircase,2024.2.1post4,60.723422400860684,2024-09-06 14h04.12.421584 +0530,
17,0.5,20.0,15.785223599988967,,15.769665899919346,15.785223599988967,16.285180900013074,16.285180900013074,16.285180900013074,,16.453309499891475,left,-20.0,0,0,0.1646257999818772,200650,001,2024-09-06_14h04.04.129,Adaptive staircase,2024.2.1post4,60.723422400860684,2024-09-06 14h04.12.421584 +0530,
18,0.5,20.0,16.468212799867615,,16.453454099828377,16.468212799867615,16.953067199792713,16.953067199792713,16.9697553999722,17.268482699990273,17.2863403998781,left,-20.0,0,0,0.33030549995601177,200650,001,2024-09-06_14h04.04.129,Adaptive staircase,2024.2.1post4,60.723422400860684,2024-09-06 14h04.12.421584 +0530,
19,0.5,20.0,17.30172330001369,,17.28648959985003,17.30172330001369,17.801770699908957,17.801770699908957,17.801770699908957,18.101346499985084,18.086320499889553,left,-20.0,0,0,0.28067929996177554,200650,001,2024-09-06_14h04.04.129,Adaptive staircase,2024.2.1post4,60.723422400860684,2024-09-06 14h04.12.421584 +0530,
20,0.5,20.0,18.101346499985084,,18.086479199817404,18.101346499985084,18.601521499920636,18.601521499920636,18.601521499920636,18.90254499996081,18.888740499969572,left,-20.0,0,0,0.27225599996745586,200650,001,2024-09-06_14h04.04.129,Adaptive staircase,2024.2.1post4,60.723422400860684,2024-09-06 14h04.12.421584 +0530,
21,0.5,20.0,18.90254499996081,,18.889148899819702,18.90254499996081,19.403255899902433,19.403255899902433,19.403255899902433,19.703946799971163,19.706342699937522,right,20.0,1,1,0.29770769993774593,200650,001,2024-09-06_14h04.04.129,Adaptive staircase,2024.2.1post4,60.723422400860684,2024-09-06 14h04.12.421584 +0530,
22,0.5,20.0,19.71954879979603,,19.70667489990592,19.71954879979603,20.218222399940714,20.218222399940714,20.234958400018513,,20.31955589982681,right,20.0,1,1,0.09231069986708462,200650,001,2024-09-06_14h04.04.129,Adaptive staircase,2024.2.1post4,60.723422400860684,2024-09-06 14h04.12.421584 +0530,
23,0.5,20.0,20.33517470001243,,20.319751099916175,20.33517470001243,20.83492759987712,20.83492759987712,20.83492759987712,,20.869253899902105,left,-20.0,0,0,0.02322880015708506,200650,001,2024-09-06_14h04.04.129,Adaptive staircase,2024.2.1post4,60.723422400860684,2024-09-06 14h04.12.421584 +0530,
24,0.5,20.0,20.884673199849203,,20.869411599822342,20.884673199849203,21.38471349980682,21.38471349980682,21.38471349980682,,21.55230569979176,left,-20.0,0,0,0.16079069999977946,200650,001,2024-09-06_14h04.04.129,Adaptive staircase,2024.2.1post4,60.723422400860684,2024-09-06 14h04.12.421584 +0530,
25,0.5,20.0,21.56813949998468,,21.552464599953964,21.56813949998468,22.051384799880907,22.051384799880907,22.06820029998198,,22.303066399879754,right,20.0,1,1,0.2494169999845326,200650,001,2024-09-06_14h04.04.129,Adaptive staircase,2024.2.1post4,60.723422400860684,2024-09-06 14h04.12.421584 +0530,
26,0.5,20.0,22.318197599845007,,22.30322639993392,22.318197599845007,22.80307689984329,22.80307689984329,22.819919999921694,23.103166799992323,23.12310739979148,left,-20.0,0,0,0.3169980999082327,200650,001,2024-09-06_14h04.04.129,Adaptive staircase,2024.2.1post4,60.723422400860684,2024-09-06 14h04.12.421584 +0530,
27,0.5,20.0,23.136415799846873,,23.123465199954808,23.136415799846873,23.63606349984184,23.63606349984184,23.63606349984184,23.93652499979362,24.10628609987907,left,-20.0,0,0,0.46488710003905,200650,001,2024-09-06_14h04.04.129,Adaptive staircase,2024.2.1post4,60.723422400860684,2024-09-06 14h04.12.421584 +0530,
28,0.5,20.0,24.119675599969923,,24.106715299887583,24.119675599969923,24.619601899990812,24.619601899990812,24.619601899990812,24.918792099924758,24.921187300002202,left,-20.0,0,0,0.2874986999668181,200650,001,2024-09-06_14h04.04.129,Adaptive staircase,2024.2.1post4,60.723422400860684,2024-09-06 14h04.12.421584 +0530,
29,0.5,20.0,24.936347299953923,,24.921556799905375,24.936347299953923,25.43693539989181,25.43693539989181,25.43693539989181,,25.519896499812603,right,20.0,1,1,0.0788759000133723,200650,001,2024-09-06_14h04.04.129,Adaptive staircase,2024.2.1post4,60.723422400860684,2024-09-06 14h04.12.421584 +0530,
30,0.5,20.0,25.534963599871844,,25.5201522000134,25.534963599871844,26.03440579981543,26.03440579981543,26.03440579981543,26.334583399817348,26.68573629995808,left,-20.0,0,0,0.6435370000544935,200650,001,2024-09-06_14h04.04.129,Adaptive staircase,2024.2.1post4,60.723422400860684,2024-09-06 14h04.12.421584 +0530,
31,0.5,20.0,26.701242599869147,,26.685894299997017,26.701242599869147,27.18597859982401,27.18597859982401,27.202823399798945,,27.305284000001848,left,-20.0,0,0,0.11086530005559325,200650,001,2024-09-06_14h04.04.129,Adaptive staircase,2024.2.1post4,60.723422400860684,2024-09-06 14h04.12.421584 +0530,
32,0.5,20.0,27.319701799890026,,27.305658099940047,27.319701799890026,27.818379199830815,27.818379199830815,27.83457089983858,28.117716299835593,28.135784699814394,left,-20.0,0,0,0.3029052000492811,200650,001,2024-09-06_14h04.04.129,Adaptive staircase,2024.2.1post4,60.723422400860684,2024-09-06 14h04.12.421584 +0530,
33,0.5,20.0,28.15088149998337,,28.13593290001154,28.15088149998337,28.651322699850425,28.651322699850425,28.651322699850425,,28.902773099951446,left,-20.0,0,0,0.23994529992341995,200650,001,2024-09-06_14h04.04.129,Adaptive staircase,2024.2.1post4,60.723422400860684,2024-09-06 14h04.12.421584 +0530,
34,0.5,20.0,28.917829799931496,,28.903017399832606,28.917829799931496,29.417972799856216,29.417972799856216,29.417972799856216,29.717684999806806,29.752651499817148,left,-20.0,0,0,0.3311993998941034,200650,001,2024-09-06_14h04.04.129,Adaptive staircase,2024.2.1post4,60.723422400860684,2024-09-06 14h04.12.421584 +0530,
35,0.5,20.0,29.767883699852973,,29.752800799906254,29.767883699852973,30.267898899968714,30.267898899968714,30.267898899968714,,30.487745499936864,left,-20.0,1,1,0.20367470011115074,200650,001,2024-09-06_14h04.04.129,Adaptive staircase,2024.2.1post4,60.723422400860684,2024-09-06 14h04.12.421584 +0530,
36,0.5,20.0,30.502411799971014,,30.4880762998946,30.502411799971014,31.00261399988085,31.00261399988085,31.00261399988085,,31.285892799962312,right,20.0,0,0,0.2677213998977095,200650,001,2024-09-06_14h04.04.129,Adaptive staircase,2024.2.1post4,60.723422400860684,2024-09-06 14h04.12.421584 +0530,
37,0.5,20.0,31.301142799900845,,31.286044999957085,31.301142799900845,31.801129499915987,31.801129499915987,31.801129499915987,,32.05249249981716,right,20.0,0,0,0.24885179987177253,200650,001,2024-09-06_14h04.04.129,Adaptive staircase,2024.2.1post4,60.723422400860684,2024-09-06 14h04.12.421584 +0530,
38,0.5,20.0,32.06800389988348,,32.05268669989891,32.06800389988348,32.5677541999612,32.5677541999612,32.5677541999612,,32.718577899970114,right,20.0,0,0,0.14572289981879294,200650,001,2024-09-06_14h04.04.129,Adaptive staircase,2024.2.1post4,60.723422400860684,2024-09-06 14h04.12.421584 +0530,
39,0.5,20.0,32.734262799844146,,32.71881059999578,32.734262799844146,33.2176456998568,33.2176456998568,33.2343653999269,,33.368779599899426,left,-20.0,1,1,0.14404170005582273,200650,001,2024-09-06_14h04.04.129,Adaptive staircase,2024.2.1post4,60.723422400860684,2024-09-06 14h04.12.421584 +0530,
40,0.5,20.0,33.383677299832925,,33.36896139988676,33.383677299832925,33.88408889994025,33.88408889994025,33.88408889994025,,34.00205919984728,left,-20.0,1,1,0.11069620004855096,200650,001,2024-09-06_14h04.04.129,Adaptive staircase,2024.2.1post4,60.723422400860684,2024-09-06 14h04.12.421584 +0530,
41,0.5,20.0,34.01766149979085,,34.00221069995314,34.01766149979085,34.51718319999054,34.51718319999054,34.51718319999054,,34.61916069989093,left,-20.0,1,1,0.08542200014926493,200650,001,2024-09-06_14h04.04.129,Adaptive staircase,2024.2.1post4,60.723422400860684,2024-09-06 14h04.12.421584 +0530,
42,0.5,19.5,34.634185899980366,,34.61931849992834,34.634185899980366,35.134072199929506,35.134072199929506,35.134072199929506,,35.3688497999683,right,19.5,0,0,0.23279200005345047,200650,001,2024-09-06_14h04.04.129,Adaptive staircase,2024.2.1post4,60.723422400860684,2024-09-06 14h04.12.421584 +0530,
43,0.5,20.0,35.38407309981994,,35.36900700000115,35.38407309981994,35.88460859982297,35.88460859982297,35.88460859982297,36.18594819982536,36.6374909998849,right,20.0,1,1,0.7395492000505328,200650,001,2024-09-06_14h04.04.129,Adaptive staircase,2024.2.1post4,60.723422400860684,2024-09-06 14h04.12.421584 +0530,
44,0.5,20.0,36.65118039981462,,36.63778349990025,36.65118039981462,37.15086159994826,37.15086159994826,37.15086159994826,,37.385595300002024,left,-20.0,0,0,0.22025169990956783,200650,001,2024-09-06_14h04.04.129,Adaptive staircase,2024.2.1post4,60.723422400860684,2024-09-06 14h04.12.421584 +0530,
45,0.5,20.0,37.401427699951455,,37.385750599903986,37.401427699951455,37.900819999864325,37.900819999864325,37.900819999864325,,38.13523939996958,left,-20.0,0,0,0.22548889997415245,200650,001,2024-09-06_14h04.04.129,Adaptive staircase,2024.2.1post4,60.723422400860684,2024-09-06 14h04.12.421584 +0530,
46,0.5,20.0,38.15081709995866,,38.13540419982746,38.15081709995866,38.650407899869606,38.650407899869606,38.650407899869606,38.95082989986986,39.01829779986292,right,20.0,1,1,0.3520580001641065,200650,001,2024-09-06_14h04.04.129,Adaptive staircase,2024.2.1post4,60.723422400860684,2024-09-06 14h04.12.421584 +0530,
47,0.5,20.0,39.034211799968034,,39.01848839991726,39.034211799968034,39.517427399987355,39.517427399987355,39.53410429996438,39.817169699817896,39.96832489990629,right,20.0,1,1,0.436837499961257,200650,001,2024-09-06_14h04.04.129,Adaptive staircase,2024.2.1post4,60.723422400860684,2024-09-06 14h04.12.421584 +0530,
48,0.5,20.0,39.983605499845,,39.96846319991164,39.983605499845,40.48359139985405,40.48359139985405,40.48359139985405,40.78389219986275,41.00161449983716,right,20.0,1,1,0.5081221999134868,200650,001,2024-09-06_14h04.04.129,Adaptive staircase,2024.2.1post4,60.723422400860684,2024-09-06 14h04.12.421584 +0530,
49,0.5,19.5,41.017070799833164,,41.00178950000554,41.017070799833164,41.50238879979588,41.50238879979588,41.51866599987261,41.802091100020334,41.90451899985783,left,-19.5,1,1,0.389083500020206,200650,001,2024-09-06_14h04.04.129,Adaptive staircase,2024.2.1post4,60.723422400860684,2024-09-06 14h04.12.421584 +0530,
