stair.thisTrialN,stair.stepSize,stair.intensity,thisRow.t,notes,trial.started,fixation.started,grating.started,key_resp.started,fixation.stopped,trial.stopped,corrAns,tilt,key_resp.corr,stair.response,key_resp.rt,grating.stopped,participant,session,date,expName,psychopyVersion,frameRate,expStart
0,2,10,0.0383774,,0.0202905,0.0383774,0.5374891,0.5374891,0.5539918,0.7921758,left,-10,1,1,0.2352008,,2,1,2024-09-06_13h52.11.586,Adaptive staircase,2024.2.1post4,59.68677576,2024-09-06 13h52.27.270357 +0530
1,1,8,0.8029583,,0.7923764,0.8029583,1.3046847,1.3046847,1.3046847,2.2041437,right,8,0,0,0.892273,1.6169824,2,1,2024-09-06_13h52.11.586,Adaptive staircase,2024.2.1post4,59.68677576,2024-09-06 13h52.27.270357 +0530
2,1,9,2.2197283,,2.2043692,2.2197283,2.7205597,2.7205597,2.7205597,3.489998,left,-9,0,0,0.7596405,3.0207753,2,1,2024-09-06_13h52.11.586,Adaptive staircase,2024.2.1post4,59.68677576,2024-09-06 13h52.27.270357 +0530
3,1,10,3.5044153,,3.4903663,3.5044153,4.0048715,4.0048715,4.0048715,4.42335,left,-10,0,0,0.4031979,4.3046194,2,1,2024-09-06_13h52.11.586,Adaptive staircase,2024.2.1post4,59.68677576,2024-09-06 13h52.27.270357 +0530
4,1,11,4.4375702,,4.4236624,4.4375702,4.9373187,4.9373187,4.9373187,5.1400832,right,11,0,0,0.1887697,,2,1,2024-09-06_13h52.11.586,Adaptive staircase,2024.2.1post4,59.68677576,2024-09-06 13h52.27.270357 +0530
5,1,12,5.1548355,,5.1404226,5.1548355,5.6541554,5.6541554,5.6711867,6.0228469,right,12,1,1,0.3598787,5.9539265,2,1,2024-09-06_13h52.11.586,Adaptive staircase,2024.2.1post4,59.68677576,2024-09-06 13h52.27.270357 +0530
6,1,12,6.0374697,,6.0231589,6.0374697,6.5375589,6.5375589,6.5375589,6.6395575,left,-12,0,0,0.0890635,,2,1,2024-09-06_13h52.11.586,Adaptive staircase,2024.2.1post4,59.68677576,2024-09-06 13h52.27.270357 +0530
7,1,13,6.6543384,,6.6398944,6.6543384,7.1543798,7.1543798,7.1543798,7.6555061,right,13,0,0,0.4943035,7.4542646,2,1,2024-09-06_13h52.11.586,Adaptive staircase,2024.2.1post4,59.68677576,2024-09-06 13h52.27.270357 +0530
8,1,14,7.6704823,,7.6557968,7.6704823,8.1711325,8.1711325,8.1711325,8.2397262,right,14,0,0,0.063647,,2,1,2024-09-06_13h52.11.586,Adaptive staircase,2024.2.1post4,59.68677576,2024-09-06 13h52.27.270357 +0530
9,1,15,8.254651,,8.24001,8.254651,8.7541638,8.7541638,8.7541638,8.805786,right,15,1,1,0.0368365,,2,1,2024-09-06_13h52.11.586,Adaptive staircase,2024.2.1post4,59.68677576,2024-09-06 13h52.27.270357 +0530
10,1,15,8.8203043,,8.8061626,8.8203043,9.3205724,9.3205724,9.3205724,9.9229745,right,15,0,0,0.5963781,9.6204009,2,1,2024-09-06_13h52.11.586,Adaptive staircase,2024.2.1post4,59.68677576,2024-09-06 13h52.27.270357 +0530
11,1,16,9.9368052,,9.9232753,9.9368052,10.4377909,10.4377909,10.4377909,10.6223998,left,-16,0,0,0.1740804,,2,1,2024-09-06_13h52.11.586,Adaptive staircase,2024.2.1post4,59.68677576,2024-09-06 13h52.27.270357 +0530
12,1,17,10.6375461,,10.6227763,10.6375461,11.1377499,11.1377499,11.1377499,11.5388899,left,-17,0,0,0.3944127,11.4373498,2,1,2024-09-06_13h52.11.586,Adaptive staircase,2024.2.1post4,59.68677576,2024-09-06 13h52.27.270357 +0530
13,1,18,11.5536519,,11.5392308,11.5536519,12.0537185,12.0537185,12.0537185,12.0723659,left,-18,1,1,0.0065446,,2,1,2024-09-06_13h52.11.586,Adaptive staircase,2024.2.1post4,59.68677576,2024-09-06 13h52.27.270357 +0530
14,1,18,12.0869482,,12.0727487,12.0869482,12.5869034,12.5869034,12.5869034,13.1072408,left,-18,1,1,0.5156687,12.8881242,2,1,2024-09-06_13h52.11.586,Adaptive staircase,2024.2.1post4,59.68677576,2024-09-06 13h52.27.270357 +0530
15,1,18,13.1211435,,13.1076198,13.1211435,13.6212683,13.6212683,13.6212683,14.0729941,right,18,0,0,0.4450543,13.9206378,2,1,2024-09-06_13h52.11.586,Adaptive staircase,2024.2.1post4,59.68677576,2024-09-06 13h52.27.270357 +0530
16,1,19,14.0870817,,14.0732905,14.0870817,14.5871854,14.5871854,14.5871854,14.6558862,left,-19,1,1,0.0521532,,2,1,2024-09-06_13h52.11.586,Adaptive staircase,2024.2.1post4,59.68677576,2024-09-06 13h52.27.270357 +0530
17,1,19,14.6705944,,14.6562261,14.6705944,15.1704133,15.1704133,15.1704133,15.5055707,left,-19,1,1,0.3250893,15.4702354,2,1,2024-09-06_13h52.11.586,Adaptive staircase,2024.2.1post4,59.68677576,2024-09-06 13h52.27.270357 +0530
18,1,19,15.5206729,,15.5058614,15.5206729,16.0210684,16.0210684,16.0210684,16.4731544,left,-19,1,1,0.4478986,16.3200269,2,1,2024-09-06_13h52.11.586,Adaptive staircase,2024.2.1post4,59.68677576,2024-09-06 13h52.27.270357 +0530
19,1,18,16.4868801,,16.4734739,16.4868801,16.9880936,16.9880936,16.9880936,17.0390529,right,18,1,1,0.0356844,,2,1,2024-09-06_13h52.11.586,Adaptive staircase,2024.2.1post4,59.68677576,2024-09-06 13h52.27.270357 +0530
20,1,18,17.0538715,,17.0394102,17.0538715,17.5535309,17.5535309,17.5535309,18.0056004,right,18,1,1,0.4486001,17.8538761,2,1,2024-09-06_13h52.11.586,Adaptive staircase,2024.2.1post4,59.68677576,2024-09-06 13h52.27.270357 +0530
21,1,18,18.019704,,18.0058832,18.019704,18.5203757,18.5203757,18.5203757,18.9888057,right,18,1,1,0.4611031,18.8201413,2,1,2024-09-06_13h52.11.586,Adaptive staircase,2024.2.1post4,59.68677576,2024-09-06 13h52.27.270357 +0530
22,0.5,17,19.0035526,,18.9891106,19.0035526,19.5036672,19.5036672,19.5036672,19.889982,left,-17,0,0,0.3767039,19.8036917,2,1,2024-09-06_13h52.11.586,Adaptive staircase,2024.2.1post4,59.68677576,2024-09-06 13h52.27.270357 +0530
23,0.5,17.5,19.9035521,,19.8902856,19.9035521,20.4042067,20.4042067,20.4042067,20.7219702,right,17.5,1,1,0.3043346,20.7034527,2,1,2024-09-06_13h52.11.586,Adaptive staircase,2024.2.1post4,59.68677576,2024-09-06 13h52.27.270357 +0530
24,0.5,17.5,20.7367177,,20.7223121,20.7367177,21.2367429,21.2367429,21.2367429,21.7217261,right,17.5,0,0,0.4681913,21.5371988,2,1,2024-09-06_13h52.11.586,Adaptive staircase,2024.2.1post4,59.68677576,2024-09-06 13h52.27.270357 +0530
25,0.5,18,21.7373935,,21.7220328,21.7373935,22.2366206,22.2366206,22.2366206,22.2562995,right,18,1,1,0.0158875,,2,1,2024-09-06_13h52.11.586,Adaptive staircase,2024.2.1post4,59.68677576,2024-09-06 13h52.27.270357 +0530
26,0.5,18,22.2703478,,22.2566043,22.2703478,22.770837,22.770837,22.770837,23.073559,right,18,1,1,0.3000622,23.0709455,2,1,2024-09-06_13h52.11.586,Adaptive staircase,2024.2.1post4,59.68677576,2024-09-06 13h52.27.270357 +0530
27,0.5,18,23.0868356,,23.0739924,23.0868356,23.586812,23.586812,23.586812,23.9389424,left,-18,0,0,0.3360121,23.8869643,2,1,2024-09-06_13h52.11.586,Adaptive staircase,2024.2.1post4,59.68677576,2024-09-06 13h52.27.270357 +0530
28,0.5,18.5,23.9535428,,23.939248,23.9535428,24.4534943,24.4534943,24.4534943,25.0232932,right,18.5,0,0,0.5637091,24.7533215,2,1,2024-09-06_13h52.11.586,Adaptive staircase,2024.2.1post4,59.68677576,2024-09-06 13h52.27.270357 +0530
29,0.5,19,25.036892,,25.0235936,25.036892,25.5371286,25.5371286,25.5371286,25.805489,right,19,0,0,0.2593603,,2,1,2024-09-06_13h52.11.586,Adaptive staircase,2024.2.1post4,59.68677576,2024-09-06 13h52.27.270357 +0530
30,0.5,19.5,25.8199388,,25.8057913,25.8199388,26.3200483,26.3200483,26.3200483,26.7564711,left,-19.5,1,1,0.4299486,26.6196344,2,1,2024-09-06_13h52.11.586,Adaptive staircase,2024.2.1post4,59.68677576,2024-09-06 13h52.27.270357 +0530
31,0.5,19.5,26.7701999,,26.7568062,26.7701999,27.2704132,27.2704132,27.2704132,27.5895543,right,19.5,0,0,0.3095682,27.5706659,2,1,2024-09-06_13h52.11.586,Adaptive staircase,2024.2.1post4,59.68677576,2024-09-06 13h52.27.270357 +0530
32,0.5,20,27.6037052,,27.5898857,27.6037052,28.1033247,28.1033247,28.1033247,28.5560569,left,-20,0,0,0.4490174,28.403238,2,1,2024-09-06_13h52.11.586,Adaptive staircase,2024.2.1post4,59.68677576,2024-09-06 13h52.27.270357 +0530
33,0.5,20,28.5706761,,28.5563648,28.5706761,29.069678,29.069678,29.0861904,29.104296,left,-20,0,0,0.0286016,,2,1,2024-09-06_13h52.11.586,Adaptive staircase,2024.2.1post4,59.68677576,2024-09-06 13h52.27.270357 +0530
34,0.5,20,29.120125,,29.1048575,29.120125,29.6034424,29.6034424,29.6203591,29.8898529,left,-20,0,0,0.2790626,29.9036162,2,1,2024-09-06_13h52.11.586,Adaptive staircase,2024.2.1post4,59.68677576,2024-09-06 13h52.27.270357 +0530
35,0.5,20,29.9036162,,29.8903065,29.9036162,30.4032228,30.4032228,30.4032228,30.7551286,right,20,0,0,0.3426577,30.7034466,2,1,2024-09-06_13h52.11.586,Adaptive staircase,2024.2.1post4,59.68677576,2024-09-06 13h52.27.270357 +0530
36,0.5,20,30.7698921,,30.7554296,30.7698921,31.2701103,31.2701103,31.2701103,31.8049991,right,20,1,1,0.5193176,31.5694536,2,1,2024-09-06_13h52.11.586,Adaptive staircase,2024.2.1post4,59.68677576,2024-09-06 13h52.27.270357 +0530
37,0.5,20,31.8199682,,31.8053232,31.8199682,32.3197613,32.3197613,32.3197613,32.8032633,right,20,1,1,0.4726025,32.6197917,2,1,2024-09-06_13h52.11.586,Adaptive staircase,2024.2.1post4,59.68677576,2024-09-06 13h52.27.270357 +0530
38,0.5,20,32.8184983,,32.80352,32.8184983,33.3032476,33.3032476,33.3194148,33.3213779,right,20,1,1,0.008347,,2,1,2024-09-06_13h52.11.586,Adaptive staircase,2024.2.1post4,59.68677576,2024-09-06 13h52.27.270357 +0530
39,0.5,19.5,33.3366881,,33.3217181,33.3366881,33.8360757,33.8360757,33.8360757,33.8880821,left,-19.5,1,1,0.0412683,,2,1,2024-09-06_13h52.11.586,Adaptive staircase,2024.2.1post4,59.68677576,2024-09-06 13h52.27.270357 +0530
40,0.5,19.5,33.9031295,,33.8883977,33.9031295,34.4030611,34.4030611,34.4030611,34.4390615,right,19.5,0,0,0.0242396,,2,1,2024-09-06_13h52.11.586,Adaptive staircase,2024.2.1post4,59.68677576,2024-09-06 13h52.27.270357 +0530
41,0.5,20,34.4534692,,34.4395986,34.4534692,34.9530845,34.9530845,34.9530845,35.1549096,right,20,1,1,None,,2,1,2024-09-06_13h52.11.586,Adaptive staircase,2024.2.1post4,59.68677576,2024-09-06 13h52.27.270357 +0530
42,0.5,20,35.1698731,,35.1553695,35.1698731,35.6697654,35.6697654,35.6697654,35.9051855,left,-20,1,1,0.2281569,,2,1,2024-09-06_13h52.11.586,Adaptive staircase,2024.2.1post4,59.68677576,2024-09-06 13h52.27.270357 +0530
43,0.5,20,35.9199343,,35.9055155,35.9199343,36.4202839,36.4202839,36.4202839,36.6725175,left,-20,0,0,None,,2,1,2024-09-06_13h52.11.586,Adaptive staircase,2024.2.1post4,59.68677576,2024-09-06 13h52.27.270357 +0530
44,0.5,20,36.6863628,,36.6728278,36.6863628,37.1864783,37.1864783,37.1864783,37.3222515,right,20,1,1,0.1244992,,2,1,2024-09-06_13h52.11.586,Adaptive staircase,2024.2.1post4,59.68677576,2024-09-06 13h52.27.270357 +0530
45,0.5,20,37.3360174,,37.3225431,37.3360174,37.8369649,37.8369649,37.8369649,38.1226548,left,-20,0,0,0.2833844,38.1360878,2,1,2024-09-06_13h52.11.586,Adaptive staircase,2024.2.1post4,59.68677576,2024-09-06 13h52.27.270357 +0530
46,0.5,20,38.1360878,,38.1230451,38.1360878,38.6367444,38.6367444,38.6367444,38.921737,left,-20,0,0,0.280068,38.9369971,2,1,2024-09-06_13h52.11.586,Adaptive staircase,2024.2.1post4,59.68677576,2024-09-06 13h52.27.270357 +0530
47,0.5,20,38.9369971,,38.9220553,38.9369971,39.4356802,39.4356802,39.4356802,39.655116,left,-20,0,0,0.2027475,,2,1,2024-09-06_13h52.11.586,Adaptive staircase,2024.2.1post4,59.68677576,2024-09-06 13h52.27.270357 +0530
48,0.5,20,39.669724,,39.6554235,39.669724,40.1694362,40.1694362,40.1694362,40.3554438,left,-20,1,1,0.182559,,2,1,2024-09-06_13h52.11.586,Adaptive staircase,2024.2.1post4,59.68677576,2024-09-06 13h52.27.270357 +0530
49,0.5,20,40.3694679,,40.3557619,40.3694679,40.8694544,40.8694544,40.8694544,41.0550504,right,20,0,0,0.1750822,,2,1,2024-09-06_13h52.11.586,Adaptive staircase,2024.2.1post4,59.68677576,2024-09-06 13h52.27.270357 +0530
,,,,,,,,,,,,Absolute threshold,18.8,,,,,,,,,,
