stair.thisTrialN,stair.stepSize,stair.intensity,thisRow.t,notes,trial.started,fixation.started,grating.started,key_resp.started,fixation.stopped,grating.stopped,trial.stopped,corrAns,tilt,key_resp.corr,stair.response,key_resp.rt,participant,session,date,expName,psychopyVersion,frameRate,expStart
0,2,10,0.035309,,0.0176874,0.035309,0.5186421,0.5186421,0.5356927,0.8189116,0.8730587,right,10,0,0,0.3425151,4,1,2024-09-06_14h04.04.129,Adaptive staircase,2024.2.1post4,60.7234224,2024-09-06 14h04.12.421584 +0530
1,2,12,0.8852273,,0.8732154,0.8852273,1.3859851,1.3859851,1.3859851,1.6854144,1.8703855,left,-12,0,0,0.4753323,4,1,2024-09-06_14h04.04.129,Adaptive staircase,2024.2.1post4,60.7234224,2024-09-06 14h04.12.421584 +0530
2,2,14,1.8853484,,1.8705503,1.8853484,2.3853617,2.3853617,2.3853617,2.6855739,3.136946,left,-14,0,0,0.7461712,4,1,2024-09-06_14h04.04.129,Adaptive staircase,2024.2.1post4,60.7234224,2024-09-06 14h04.12.421584 +0530
3,1,16,3.1524538,,3.1370894,3.1524538,3.6524361,3.6524361,3.6524361,,3.7368583,left,-16,1,1,0.0749805,4,1,2024-09-06_14h04.04.129,Adaptive staircase,2024.2.1post4,60.7234224,2024-09-06 14h04.12.421584 +0530
4,1,15,3.7522937,,3.7370648,3.7522937,4.2518093,4.2518093,4.2518093,,4.4366287,left,-15,0,0,0.1735865,4,1,2024-09-06_14h04.04.129,Adaptive staircase,2024.2.1post4,60.7234224,2024-09-06 14h04.12.421584 +0530
5,1,16,4.4521754,,4.4367846,4.4521754,4.9521069,4.9521069,4.9521069,5.2520941,5.4865207,left,-16,0,0,0.5268027,4,1,2024-09-06_14h04.04.129,Adaptive staircase,2024.2.1post4,60.7234224,2024-09-06 14h04.12.421584 +0530
6,1,17,5.5021913,,5.4867294,5.5021913,5.9857484,5.9857484,6.0022741,6.2853411,6.4558545,right,17,1,1,0.4567992,4,1,2024-09-06_14h04.04.129,Adaptive staircase,2024.2.1post4,60.7234224,2024-09-06 14h04.12.421584 +0530
7,1,17,6.4704362,,6.4561497,6.4704362,6.970278,6.970278,6.970278,7.2703364,7.4377813,left,-17,0,0,0.4561797,4,1,2024-09-06_14h04.04.129,Adaptive staircase,2024.2.1post4,60.7234224,2024-09-06 14h04.12.421584 +0530
8,1,18,7.4529167,,7.4379942,7.4529167,7.937875,7.937875,7.954239,8.2374371,8.3718342,right,18,1,1,0.4188194,4,1,2024-09-06_14h04.04.129,Adaptive staircase,2024.2.1post4,60.7234224,2024-09-06 14h04.12.421584 +0530
9,1,18,8.3863468,,8.3722106,8.3863468,8.8861247,8.8861247,8.8861247,9.1866703,9.2388806,right,18,1,1,0.3432637,4,1,2024-09-06_14h04.04.129,Adaptive staircase,2024.2.1post4,60.7234224,2024-09-06 14h04.12.421584 +0530
10,0.5,18,9.2537189,,9.2391821,9.2537189,9.7530675,9.7530675,9.7530675,10.0535973,10.3223725,right,18,1,1,0.5538379,4,1,2024-09-06_14h04.04.129,Adaptive staircase,2024.2.1post4,60.7234224,2024-09-06 14h04.12.421584 +0530
11,0.5,17.5,10.3371461,,10.322744,10.3371461,10.8370409,10.8370409,10.8370409,11.1368351,11.2386031,left,-17.5,0,0,0.3881902,4,1,2024-09-06_14h04.04.129,Adaptive staircase,2024.2.1post4,60.7234224,2024-09-06 14h04.12.421584 +0530
12,0.5,18,11.25365,,11.2389424,11.25365,11.753605,11.753605,11.753605,12.0688218,12.2194069,left,-18,0,0,0.4546521,4,1,2024-09-06_14h04.04.129,Adaptive staircase,2024.2.1post4,60.7234224,2024-09-06 14h04.12.421584 +0530
13,0.5,18.5,12.235221,,12.2195625,12.235221,12.7185403,12.7185403,12.7351985,13.0200989,13.0702672,left,-18.5,0,0,0.3457147,4,1,2024-09-06_14h04.04.129,Adaptive staircase,2024.2.1post4,60.7234224,2024-09-06 14h04.12.421584 +0530
14,0.5,19,13.0853473,,13.070518,13.0853473,13.584964,13.584964,13.584964,13.8851244,13.870027,left,-19,0,0,0.2830213,4,1,2024-09-06_14h04.04.129,Adaptive staircase,2024.2.1post4,60.7234224,2024-09-06 14h04.12.421584 +0530
15,0.5,19.5,13.8851244,,13.8702171,13.8851244,14.385047,14.385047,14.385047,14.6849927,14.8363499,left,-19.5,0,0,0.4418951,4,1,2024-09-06_14h04.04.129,Adaptive staircase,2024.2.1post4,60.7234224,2024-09-06 14h04.12.421584 +0530
16,0.5,20,14.8519072,,14.836533,14.8519072,15.3519969,15.3519969,15.3519969,15.651744,15.769465,left,-20,0,0,0.4139845,4,1,2024-09-06_14h04.04.129,Adaptive staircase,2024.2.1post4,60.7234224,2024-09-06 14h04.12.421584 +0530
17,0.5,20,15.7852236,,15.7696659,15.7852236,16.2851809,16.2851809,16.2851809,,16.4533095,left,-20,0,0,0.1646258,4,1,2024-09-06_14h04.04.129,Adaptive staircase,2024.2.1post4,60.7234224,2024-09-06 14h04.12.421584 +0530
18,0.5,20,16.4682128,,16.4534541,16.4682128,16.9530672,16.9530672,16.9697554,17.2684827,17.2863404,left,-20,0,0,0.3303055,4,1,2024-09-06_14h04.04.129,Adaptive staircase,2024.2.1post4,60.7234224,2024-09-06 14h04.12.421584 +0530
19,0.5,20,17.3017233,,17.2864896,17.3017233,17.8017707,17.8017707,17.8017707,18.1013465,18.0863205,left,-20,0,0,0.2806793,4,1,2024-09-06_14h04.04.129,Adaptive staircase,2024.2.1post4,60.7234224,2024-09-06 14h04.12.421584 +0530
20,0.5,20,18.1013465,,18.0864792,18.1013465,18.6015215,18.6015215,18.6015215,18.902545,18.8887405,left,-20,0,0,0.272256,4,1,2024-09-06_14h04.04.129,Adaptive staircase,2024.2.1post4,60.7234224,2024-09-06 14h04.12.421584 +0530
21,0.5,20,18.902545,,18.8891489,18.902545,19.4032559,19.4032559,19.4032559,19.7039468,19.7063427,right,20,1,1,0.2977077,4,1,2024-09-06_14h04.04.129,Adaptive staircase,2024.2.1post4,60.7234224,2024-09-06 14h04.12.421584 +0530
22,0.5,20,19.7195488,,19.7066749,19.7195488,20.2182224,20.2182224,20.2349584,,20.3195559,right,20,1,1,0.0923107,4,1,2024-09-06_14h04.04.129,Adaptive staircase,2024.2.1post4,60.7234224,2024-09-06 14h04.12.421584 +0530
23,0.5,20,20.3351747,,20.3197511,20.3351747,20.8349276,20.8349276,20.8349276,,20.8692539,left,-20,0,0,0.0232288,4,1,2024-09-06_14h04.04.129,Adaptive staircase,2024.2.1post4,60.7234224,2024-09-06 14h04.12.421584 +0530
24,0.5,20,20.8846732,,20.8694116,20.8846732,21.3847135,21.3847135,21.3847135,,21.5523057,left,-20,0,0,0.1607907,4,1,2024-09-06_14h04.04.129,Adaptive staircase,2024.2.1post4,60.7234224,2024-09-06 14h04.12.421584 +0530
25,0.5,20,21.5681395,,21.5524646,21.5681395,22.0513848,22.0513848,22.0682003,,22.3030664,right,20,1,1,0.249417,4,1,2024-09-06_14h04.04.129,Adaptive staircase,2024.2.1post4,60.7234224,2024-09-06 14h04.12.421584 +0530
26,0.5,20,22.3181976,,22.3032264,22.3181976,22.8030769,22.8030769,22.81992,23.1031668,23.1231074,left,-20,0,0,0.3169981,4,1,2024-09-06_14h04.04.129,Adaptive staircase,2024.2.1post4,60.7234224,2024-09-06 14h04.12.421584 +0530
27,0.5,20,23.1364158,,23.1234652,23.1364158,23.6360635,23.6360635,23.6360635,23.936525,24.1062861,left,-20,0,0,0.4648871,4,1,2024-09-06_14h04.04.129,Adaptive staircase,2024.2.1post4,60.7234224,2024-09-06 14h04.12.421584 +0530
28,0.5,20,24.1196756,,24.1067153,24.1196756,24.6196019,24.6196019,24.6196019,24.9187921,24.9211873,left,-20,0,0,0.2874987,4,1,2024-09-06_14h04.04.129,Adaptive staircase,2024.2.1post4,60.7234224,2024-09-06 14h04.12.421584 +0530
29,0.5,20,24.9363473,,24.9215568,24.9363473,25.4369354,25.4369354,25.4369354,,25.5198965,right,20,1,1,0.0788759,4,1,2024-09-06_14h04.04.129,Adaptive staircase,2024.2.1post4,60.7234224,2024-09-06 14h04.12.421584 +0530
30,0.5,20,25.5349636,,25.5201522,25.5349636,26.0344058,26.0344058,26.0344058,26.3345834,26.6857363,left,-20,0,0,0.643537,4,1,2024-09-06_14h04.04.129,Adaptive staircase,2024.2.1post4,60.7234224,2024-09-06 14h04.12.421584 +0530
31,0.5,20,26.7012426,,26.6858943,26.7012426,27.1859786,27.1859786,27.2028234,,27.305284,left,-20,0,0,0.1108653,4,1,2024-09-06_14h04.04.129,Adaptive staircase,2024.2.1post4,60.7234224,2024-09-06 14h04.12.421584 +0530
32,0.5,20,27.3197018,,27.3056581,27.3197018,27.8183792,27.8183792,27.8345709,28.1177163,28.1357847,left,-20,0,0,0.3029052,4,1,2024-09-06_14h04.04.129,Adaptive staircase,2024.2.1post4,60.7234224,2024-09-06 14h04.12.421584 +0530
33,0.5,20,28.1508815,,28.1359329,28.1508815,28.6513227,28.6513227,28.6513227,,28.9027731,left,-20,0,0,0.2399453,4,1,2024-09-06_14h04.04.129,Adaptive staircase,2024.2.1post4,60.7234224,2024-09-06 14h04.12.421584 +0530
34,0.5,20,28.9178298,,28.9030174,28.9178298,29.4179728,29.4179728,29.4179728,29.717685,29.7526515,left,-20,0,0,0.3311994,4,1,2024-09-06_14h04.04.129,Adaptive staircase,2024.2.1post4,60.7234224,2024-09-06 14h04.12.421584 +0530
35,0.5,20,29.7678837,,29.7528008,29.7678837,30.2678989,30.2678989,30.2678989,,30.4877455,left,-20,1,1,0.2036747,4,1,2024-09-06_14h04.04.129,Adaptive staircase,2024.2.1post4,60.7234224,2024-09-06 14h04.12.421584 +0530
36,0.5,20,30.5024118,,30.4880763,30.5024118,31.002614,31.002614,31.002614,,31.2858928,right,20,0,0,0.2677214,4,1,2024-09-06_14h04.04.129,Adaptive staircase,2024.2.1post4,60.7234224,2024-09-06 14h04.12.421584 +0530
37,0.5,20,31.3011428,,31.286045,31.3011428,31.8011295,31.8011295,31.8011295,,32.0524925,right,20,0,0,0.2488518,4,1,2024-09-06_14h04.04.129,Adaptive staircase,2024.2.1post4,60.7234224,2024-09-06 14h04.12.421584 +0530
38,0.5,20,32.0680039,,32.0526867,32.0680039,32.5677542,32.5677542,32.5677542,,32.7185779,right,20,0,0,0.1457229,4,1,2024-09-06_14h04.04.129,Adaptive staircase,2024.2.1post4,60.7234224,2024-09-06 14h04.12.421584 +0530
39,0.5,20,32.7342628,,32.7188106,32.7342628,33.2176457,33.2176457,33.2343654,,33.3687796,left,-20,1,1,0.1440417,4,1,2024-09-06_14h04.04.129,Adaptive staircase,2024.2.1post4,60.7234224,2024-09-06 14h04.12.421584 +0530
40,0.5,20,33.3836773,,33.3689614,33.3836773,33.8840889,33.8840889,33.8840889,,34.0020592,left,-20,1,1,0.1106962,4,1,2024-09-06_14h04.04.129,Adaptive staircase,2024.2.1post4,60.7234224,2024-09-06 14h04.12.421584 +0530
41,0.5,20,34.0176615,,34.0022107,34.0176615,34.5171832,34.5171832,34.5171832,,34.6191607,left,-20,1,1,0.085422,4,1,2024-09-06_14h04.04.129,Adaptive staircase,2024.2.1post4,60.7234224,2024-09-06 14h04.12.421584 +0530
42,0.5,19.5,34.6341859,,34.6193185,34.6341859,35.1340722,35.1340722,35.1340722,,35.3688498,right,19.5,0,0,0.232792,4,1,2024-09-06_14h04.04.129,Adaptive staircase,2024.2.1post4,60.7234224,2024-09-06 14h04.12.421584 +0530
43,0.5,20,35.3840731,,35.369007,35.3840731,35.8846086,35.8846086,35.8846086,36.1859482,36.637491,right,20,1,1,0.7395492,4,1,2024-09-06_14h04.04.129,Adaptive staircase,2024.2.1post4,60.7234224,2024-09-06 14h04.12.421584 +0530
44,0.5,20,36.6511804,,36.6377835,36.6511804,37.1508616,37.1508616,37.1508616,,37.3855953,left,-20,0,0,0.2202517,4,1,2024-09-06_14h04.04.129,Adaptive staircase,2024.2.1post4,60.7234224,2024-09-06 14h04.12.421584 +0530
45,0.5,20,37.4014277,,37.3857506,37.4014277,37.90082,37.90082,37.90082,,38.1352394,left,-20,0,0,0.2254889,4,1,2024-09-06_14h04.04.129,Adaptive staircase,2024.2.1post4,60.7234224,2024-09-06 14h04.12.421584 +0530
46,0.5,20,38.1508171,,38.1354042,38.1508171,38.6504079,38.6504079,38.6504079,38.9508299,39.0182978,right,20,1,1,0.352058,4,1,2024-09-06_14h04.04.129,Adaptive staircase,2024.2.1post4,60.7234224,2024-09-06 14h04.12.421584 +0530
47,0.5,20,39.0342118,,39.0184884,39.0342118,39.5174274,39.5174274,39.5341043,39.8171697,39.9683249,right,20,1,1,0.4368375,4,1,2024-09-06_14h04.04.129,Adaptive staircase,2024.2.1post4,60.7234224,2024-09-06 14h04.12.421584 +0530
48,0.5,20,39.9836055,,39.9684632,39.9836055,40.4835914,40.4835914,40.4835914,40.7838922,41.0016145,right,20,1,1,0.5081222,4,1,2024-09-06_14h04.04.129,Adaptive staircase,2024.2.1post4,60.7234224,2024-09-06 14h04.12.421584 +0530
49,0.5,19.5,41.0170708,,41.0017895,41.0170708,41.5023888,41.5023888,41.518666,41.8020911,41.904519,left,-19.5,1,1,0.3890835,4,1,2024-09-06_14h04.04.129,Adaptive staircase,2024.2.1post4,60.7234224,2024-09-06 14h04.12.421584 +0530
,,,,,,,,,,,,,Absolute threshold,18.2,,,,,,,,,
