stair.thisTrialN,stair.stepSize,stair.intensity,thisRow.t,notes,trial.started,fixation.started,grating.started,key_resp.started,fixation.stopped,trial.stopped,corrAns,tilt,key_resp.corr,stair.response,key_resp.rt,grating.stopped,participant,session,date,expName,psychopyVersion,frameRate,expStart,
0,2,10.0,0.038377400022000074,,0.02029050001874566,0.038377400022000074,0.5374891001265496,0.5374891001265496,0.5539917999412864,0.7921758000738919,left,-10.0,1,1,0.23520080000162125,,577618,001,2024-09-06_13h52.11.586,Adaptive staircase,2024.2.1post4,59.686775757302264,2024-09-06 13h52.27.270357 +0530,
1,1,8.0,0.8029583001043648,,0.7923763999715447,0.8029583001043648,1.3046846999786794,1.3046846999786794,1.3046846999786794,2.204143699957058,right,8.0,0,0,0.8922729999758303,1.6169823999516666,577618,001,2024-09-06_13h52.11.586,Adaptive staircase,2024.2.1post4,59.686775757302264,2024-09-06 13h52.27.270357 +0530,
2,1,9.0,2.2197283001150936,,2.2043691999278963,2.2197283001150936,2.7205596999265254,2.7205596999265254,2.7205596999265254,3.489997999975458,left,-9.0,0,0,0.7596404999494553,3.0207752999849617,577618,001,2024-09-06_13h52.11.586,Adaptive staircase,2024.2.1post4,59.686775757302264,2024-09-06 13h52.27.270357 +0530,
3,1,10.0,3.5044152999762446,,3.4903663001023233,3.5044152999762446,4.004871499957517,4.004871499957517,4.004871499957517,4.423350000055507,left,-10.0,0,0,0.4031979001592845,4.30461940006353,577618,001,2024-09-06_13h52.11.586,Adaptive staircase,2024.2.1post4,59.686775757302264,2024-09-06 13h52.27.270357 +0530,
4,1,11.0,4.437570200068876,,4.423662400105968,4.437570200068876,4.9373187001328915,4.9373187001328915,4.9373187001328915,5.140083200065419,right,11.0,0,0,0.18876970000565052,,577618,001,2024-09-06_13h52.11.586,Adaptive staircase,2024.2.1post4,59.686775757302264,2024-09-06 13h52.27.270357 +0530,
5,1,12.0,5.154835500055924,,5.140422600088641,5.154835500055924,5.654155400115997,5.654155400115997,5.671186699997634,6.0228468999266624,right,12.0,1,1,0.3598786999937147,5.953926499933004,577618,001,2024-09-06_13h52.11.586,Adaptive staircase,2024.2.1post4,59.686775757302264,2024-09-06 13h52.27.270357 +0530,
6,1,12.0,6.037469699978828,,6.023158899974078,6.037469699978828,6.537558899959549,6.537558899959549,6.537558899959549,6.639557500137016,left,-12.0,0,0,0.08906350005418062,,577618,001,2024-09-06_13h52.11.586,Adaptive staircase,2024.2.1post4,59.686775757302264,2024-09-06 13h52.27.270357 +0530,
7,1,13.0,6.654338400112465,,6.639894400024787,6.654338400112465,7.154379799962044,7.154379799962044,7.154379799962044,7.655506100039929,right,13.0,0,0,0.49430350004695356,7.454264600062743,577618,001,2024-09-06_13h52.11.586,Adaptive staircase,2024.2.1post4,59.686775757302264,2024-09-06 13h52.27.270357 +0530,
8,1,14.0,7.670482299989089,,7.655796800041571,7.670482299989089,8.17113250005059,8.17113250005059,8.17113250005059,8.239726200001314,right,14.0,0,0,0.06364699988625944,,577618,001,2024-09-06_13h52.11.586,Adaptive staircase,2024.2.1post4,59.686775757302264,2024-09-06 13h52.27.270357 +0530,
9,1,15.0,8.25465100002475,,8.240010000066832,8.25465100002475,8.75416380004026,8.75416380004026,8.75416380004026,8.805786000099033,right,15.0,1,1,0.036836500046774745,,577618,001,2024-09-06_13h52.11.586,Adaptive staircase,2024.2.1post4,59.686775757302264,2024-09-06 13h52.27.270357 +0530,
10,1,15.0,8.820304299937561,,8.806162599939853,8.820304299937561,9.320572399999946,9.320572399999946,9.320572399999946,9.922974500106648,right,15.0,0,0,0.59637810010463,9.620400900021195,577618,001,2024-09-06_13h52.11.586,Adaptive staircase,2024.2.1post4,59.686775757302264,2024-09-06 13h52.27.270357 +0530,
11,1,16.0,9.936805200064555,,9.92327530006878,9.936805200064555,10.437790900003165,10.437790900003165,10.437790900003165,10.622399799991399,left,-16.0,0,0,0.17408040002919734,,577618,001,2024-09-06_13h52.11.586,Adaptive staircase,2024.2.1post4,59.686775757302264,2024-09-06 13h52.27.270357 +0530,
12,1,17.0,10.637546099955216,,10.622776299947873,10.637546099955216,11.137749900110066,11.137749900110066,11.137749900110066,11.538889900082722,left,-17.0,0,0,0.39441270008683205,11.437349800020456,577618,001,2024-09-06_13h52.11.586,Adaptive staircase,2024.2.1post4,59.686775757302264,2024-09-06 13h52.27.270357 +0530,
13,1,18.0,11.553651900030673,,11.53923080000095,11.553651900030673,12.053718500072137,12.053718500072137,12.053718500072137,12.072365900035948,left,-18.0,1,1,0.006544600008055568,,577618,001,2024-09-06_13h52.11.586,Adaptive staircase,2024.2.1post4,59.686775757302264,2024-09-06 13h52.27.270357 +0530,
14,1,18.0,12.086948200128973,,12.072748699923977,12.086948200128973,12.586903400020674,12.586903400020674,12.586903400020674,13.107240800047293,left,-18.0,1,1,0.5156686999835074,12.888124200049788,577618,001,2024-09-06_13h52.11.586,Adaptive staircase,2024.2.1post4,59.686775757302264,2024-09-06 13h52.27.270357 +0530,
15,1,18.0,13.121143500087783,,13.107619800139219,13.121143500087783,13.621268300106749,13.621268300106749,13.621268300106749,14.072994099929929,right,18.0,0,0,0.44505429989658296,13.920637800125405,577618,001,2024-09-06_13h52.11.586,Adaptive staircase,2024.2.1post4,59.686775757302264,2024-09-06 13h52.27.270357 +0530,
16,1,19.0,14.08708170009777,,14.073290500091389,14.08708170009777,14.587185400072485,14.587185400072485,14.587185400072485,14.655886200023815,left,-19.0,1,1,0.052153199911117554,,577618,001,2024-09-06_13h52.11.586,Adaptive staircase,2024.2.1post4,59.686775757302264,2024-09-06 13h52.27.270357 +0530,
17,1,19.0,14.670594400027767,,14.656226099934429,14.670594400027767,15.17041329992935,15.17041329992935,15.17041329992935,15.505570699926466,left,-19.0,1,1,0.3250893000513315,15.470235400134698,577618,001,2024-09-06_13h52.11.586,Adaptive staircase,2024.2.1post4,59.686775757302264,2024-09-06 13h52.27.270357 +0530,
18,1,19.0,15.52067290013656,,15.505861399928108,15.52067290013656,16.02106840000488,16.02106840000488,16.02106840000488,16.473154400009662,left,-19.0,1,1,0.4478986000176519,16.320026900153607,577618,001,2024-09-06_13h52.11.586,Adaptive staircase,2024.2.1post4,59.686775757302264,2024-09-06 13h52.27.270357 +0530,
19,1,18.0,16.48688010009937,,16.47347389999777,16.48688010009937,16.988093600142747,16.988093600142747,16.988093600142747,17.0390528999269,right,18.0,1,1,0.03568440000526607,,577618,001,2024-09-06_13h52.11.586,Adaptive staircase,2024.2.1post4,59.686775757302264,2024-09-06 13h52.27.270357 +0530,
20,1,18.0,17.053871500073,,17.039410199970007,17.053871500073,17.55353090004064,17.55353090004064,17.55353090004064,18.0056004000362,right,18.0,1,1,0.44860010012052953,17.853876100154594,577618,001,2024-09-06_13h52.11.586,Adaptive staircase,2024.2.1post4,59.686775757302264,2024-09-06 13h52.27.270357 +0530,
21,1,18.0,18.019704000093043,,18.005883200094104,18.019704000093043,18.52037569996901,18.52037569996901,18.52037569996901,18.988805700093508,right,18.0,1,1,0.4611031000968069,18.820141300093383,577618,001,2024-09-06_13h52.11.586,Adaptive staircase,2024.2.1post4,59.686775757302264,2024-09-06 13h52.27.270357 +0530,
22,0.5,17.0,19.003552600042894,,18.989110599970445,19.003552600042894,19.503667199984193,19.503667199984193,19.503667199984193,19.889981999993324,left,-17.0,0,0,0.37670390005223453,19.8036917001009,577618,001,2024-09-06_13h52.11.586,Adaptive staircase,2024.2.1post4,59.686775757302264,2024-09-06 13h52.27.270357 +0530,
23,0.5,17.5,19.90355210006237,,19.890285599976778,19.90355210006237,20.404206699924543,20.404206699924543,20.404206699924543,20.721970200072974,right,17.5,1,1,0.3043345999903977,20.703452700050548,577618,001,2024-09-06_13h52.11.586,Adaptive staircase,2024.2.1post4,59.686775757302264,2024-09-06 13h52.27.270357 +0530,
24,0.5,17.5,20.73671770002693,,20.722312099998817,20.73671770002693,21.236742899985984,21.236742899985984,21.236742899985984,21.721726099960506,right,17.5,0,0,0.4681912998203188,21.537198800127953,577618,001,2024-09-06_13h52.11.586,Adaptive staircase,2024.2.1post4,59.686775757302264,2024-09-06 13h52.27.270357 +0530,
25,0.5,18.0,21.73739350005053,,21.72203280008398,21.73739350005053,22.23662060010247,22.23662060010247,22.23662060010247,22.256299500120804,right,18.0,1,1,0.01588750001974404,,577618,001,2024-09-06_13h52.11.586,Adaptive staircase,2024.2.1post4,59.686775757302264,2024-09-06 13h52.27.270357 +0530,
26,0.5,18.0,22.27034780010581,,22.256604300113395,22.27034780010581,22.77083700010553,22.77083700010553,22.77083700010553,23.07355899992399,right,18.0,1,1,0.30006220005452633,23.07094549993053,577618,001,2024-09-06_13h52.11.586,Adaptive staircase,2024.2.1post4,59.686775757302264,2024-09-06 13h52.27.270357 +0530,
27,0.5,18.0,23.086835599970073,,23.07399239996448,23.086835599970073,23.5868120000232,23.5868120000232,23.5868120000232,23.938942400040105,left,-18.0,0,0,0.3360121001023799,23.886964299948886,577618,001,2024-09-06_13h52.11.586,Adaptive staircase,2024.2.1post4,59.686775757302264,2024-09-06 13h52.27.270357 +0530,
28,0.5,18.5,23.953542800154537,,23.939248000038788,23.953542800154537,24.45349430013448,24.45349430013448,24.45349430013448,25.023293199948967,right,18.5,0,0,0.5637091000098735,24.753321500029415,577618,001,2024-09-06_13h52.11.586,Adaptive staircase,2024.2.1post4,59.686775757302264,2024-09-06 13h52.27.270357 +0530,
29,0.5,19.0,25.036892000120133,,25.023593600140885,25.036892000120133,25.537128600059077,25.537128600059077,25.537128600059077,25.805488999933004,right,19.0,0,0,0.25936030014418066,,577618,001,2024-09-06_13h52.11.586,Adaptive staircase,2024.2.1post4,59.686775757302264,2024-09-06 13h52.27.270357 +0530,
30,0.5,19.5,25.819938800064847,,25.805791300022975,25.819938800064847,26.320048300083727,26.320048300083727,26.320048300083727,26.756471100030467,left,-19.5,1,1,0.42994860000908375,26.619634400121868,577618,001,2024-09-06_13h52.11.586,Adaptive staircase,2024.2.1post4,59.686775757302264,2024-09-06 13h52.27.270357 +0530,
31,0.5,19.5,26.770199900027364,,26.756806200137362,26.770199900027364,27.270413200138137,27.270413200138137,27.270413200138137,27.589554300066084,right,19.5,0,0,0.30956820002757013,27.570665900129825,577618,001,2024-09-06_13h52.11.586,Adaptive staircase,2024.2.1post4,59.686775757302264,2024-09-06 13h52.27.270357 +0530,
32,0.5,20.0,27.603705200133845,,27.58988570002839,27.603705200133845,28.103324700146914,28.103324700146914,28.103324700146914,28.55605689994991,left,-20.0,0,0,0.4490173999220133,28.40323800011538,577618,001,2024-09-06_13h52.11.586,Adaptive staircase,2024.2.1post4,59.686775757302264,2024-09-06 13h52.27.270357 +0530,
33,0.5,20.0,28.570676099974662,,28.55636480008252,28.570676099974662,29.069677999941632,29.069677999941632,29.086190399946645,29.104295999975875,left,-20.0,0,0,0.028601600090041757,,577618,001,2024-09-06_13h52.11.586,Adaptive staircase,2024.2.1post4,59.686775757302264,2024-09-06 13h52.27.270357 +0530,
34,0.5,20.0,29.120125000132248,,29.104857499944046,29.120125000132248,29.6034423999954,29.6034423999954,29.62035909993574,29.88985290005803,left,-20.0,0,0,0.27906260010786355,29.903616199968383,577618,001,2024-09-06_13h52.11.586,Adaptive staircase,2024.2.1post4,59.686775757302264,2024-09-06 13h52.27.270357 +0530,
35,0.5,20.0,29.903616199968383,,29.890306500019506,29.903616199968383,30.40322279999964,30.40322279999964,30.40322279999964,30.755128599936143,right,20.0,0,0,0.3426577001810074,30.703446600120515,577618,001,2024-09-06_13h52.11.586,Adaptive staircase,2024.2.1post4,59.686775757302264,2024-09-06 13h52.27.270357 +0530,
36,0.5,20.0,30.76989210001193,,30.75542960013263,30.76989210001193,31.270110300043598,31.270110300043598,31.270110300043598,31.80499910004437,right,20.0,1,1,0.519317600177601,31.569453600095585,577618,001,2024-09-06_13h52.11.586,Adaptive staircase,2024.2.1post4,59.686775757302264,2024-09-06 13h52.27.270357 +0530,
37,0.5,20.0,31.819968200055882,,31.805323200067505,31.819968200055882,32.31976129999384,32.31976129999384,32.31976129999384,32.80326330009848,right,20.0,1,1,0.4726024998817593,32.61979170003906,577618,001,2024-09-06_13h52.11.586,Adaptive staircase,2024.2.1post4,59.686775757302264,2024-09-06 13h52.27.270357 +0530,
38,0.5,20.0,32.818498300155625,,32.80352000007406,32.818498300155625,33.30324760009535,33.30324760009535,33.31941480003297,33.32137789996341,right,20.0,1,1,0.008346999995410442,,577618,001,2024-09-06_13h52.11.586,Adaptive staircase,2024.2.1post4,59.686775757302264,2024-09-06 13h52.27.270357 +0530,
39,0.5,19.5,33.3366881001275,,33.32171809999272,33.3366881001275,33.836075700121,33.836075700121,33.836075700121,33.888082100078464,left,-19.5,1,1,0.04126829979941249,,577618,001,2024-09-06_13h52.11.586,Adaptive staircase,2024.2.1post4,59.686775757302264,2024-09-06 13h52.27.270357 +0530,
40,0.5,19.5,33.903129500104114,,33.88839770015329,33.903129500104114,34.403061100048944,34.403061100048944,34.403061100048944,34.439061500132084,right,19.5,0,0,0.024239599937573075,,577618,001,2024-09-06_13h52.11.586,Adaptive staircase,2024.2.1post4,59.686775757302264,2024-09-06 13h52.27.270357 +0530,
41,0.5,20.0,34.45346920005977,,34.43959860014729,34.45346920005977,34.95308450004086,34.95308450004086,34.95308450004086,35.15490960003808,right,20.0,1,1,None,,577618,001,2024-09-06_13h52.11.586,Adaptive staircase,2024.2.1post4,59.686775757302264,2024-09-06 13h52.27.270357 +0530,
42,0.5,20.0,35.16987310000695,,35.15536949993111,35.16987310000695,35.66976540000178,35.66976540000178,35.66976540000178,35.90518549992703,left,-20.0,1,1,0.22815690003335476,,577618,001,2024-09-06_13h52.11.586,Adaptive staircase,2024.2.1post4,59.686775757302264,2024-09-06 13h52.27.270357 +0530,
43,0.5,20.0,35.9199343000073,,35.905515500111505,35.9199343000073,36.42028390010819,36.42028390010819,36.42028390010819,36.672517500119284,left,-20.0,0,0,None,,577618,001,2024-09-06_13h52.11.586,Adaptive staircase,2024.2.1post4,59.686775757302264,2024-09-06 13h52.27.270357 +0530,
44,0.5,20.0,36.68636279995553,,36.67282780003734,36.68636279995553,37.1864783000201,37.1864783000201,37.1864783000201,37.32225150009617,right,20.0,1,1,0.12449919991195202,,577618,001,2024-09-06_13h52.11.586,Adaptive staircase,2024.2.1post4,59.686775757302264,2024-09-06 13h52.27.270357 +0530,
45,0.5,20.0,37.33601740002632,,37.32254309998825,37.33601740002632,37.83696490013972,37.83696490013972,37.83696490013972,38.12265480007045,left,-20.0,0,0,0.2833843999542296,38.13608780014329,577618,001,2024-09-06_13h52.11.586,Adaptive staircase,2024.2.1post4,59.686775757302264,2024-09-06 13h52.27.270357 +0530,
46,0.5,20.0,38.13608780014329,,38.123045100132,38.13608780014329,38.63674440002069,38.63674440002069,38.63674440002069,38.92173700011335,left,-20.0,0,0,0.28006800008006394,38.93699710001238,577618,001,2024-09-06_13h52.11.586,Adaptive staircase,2024.2.1post4,59.686775757302264,2024-09-06 13h52.27.270357 +0530,
47,0.5,20.0,38.93699710001238,,38.922055300092325,38.93699710001238,39.435680200112984,39.435680200112984,39.435680200112984,39.6551159999799,left,-20.0,0,0,0.2027475000359118,,577618,001,2024-09-06_13h52.11.586,Adaptive staircase,2024.2.1post4,59.686775757302264,2024-09-06 13h52.27.270357 +0530,
48,0.5,20.0,39.6697240001522,,39.655423500109464,39.6697240001522,40.169436200056225,40.169436200056225,40.169436200056225,40.35544380010106,left,-20.0,1,1,0.18255900009535253,,577618,001,2024-09-06_13h52.11.586,Adaptive staircase,2024.2.1post4,59.686775757302264,2024-09-06 13h52.27.270357 +0530,
49,0.5,20.0,40.36946790013462,,40.355761900078505,40.36946790013462,40.86945440014824,40.86945440014824,40.86945440014824,41.05505040008575,right,20.0,0,0,0.17508219997398555,,577618,001,2024-09-06_13h52.11.586,Adaptive staircase,2024.2.1post4,59.686775757302264,2024-09-06 13h52.27.270357 +0530,
